accx,accy,accz
1.5751060183095862,2.515957123666952,8.860680829055013
1.5751060183095862,2.540865124099255,8.90941526488341
1.6240642975496484,2.5548136043413447,9.067715772751532
1.6372323864486995,2.6145928053788725,9.068752675641498
1.6375700297538034,2.660672606178634,8.960914775085048
1.6622179910263863,2.6721302863774934,8.961260409381703
1.748317033827875,2.706752406978395,8.987528615927506
1.9694733986709145,2.762297247942431,9.015524993956584
2.140996197663684,2.7700187280764452,9.006192867946892
2.276391163010339,2.8265598890577732,8.972666341171328
2.3753206514057745,2.908009050471405,8.9512370147787
2.4614196942072635,2.954088851271166,8.953310820558631
2.547856380313856,3.0111281722611407,8.907341459103478
2.6339554231153444,3.0332962926458906,8.9087239962901
2.805815865413218,3.0651785331992385,8.899737504577061
2.9162252261821857,3.0973098537569097,8.817130907676448
3.063437707207476,3.0933245736877413,8.79501031269051
3.1606789790773924,3.043259492818812,8.807453147370099
3.2461027352686735,3.005150252157388,8.796047215580474
3.2950610145087356,3.0044030121444187,8.820932884939655
3.2950610145087356,3.0039048521357725,8.79639284987713
3.3436816504436937,2.991699931923944,8.845472920002182
3.318696045866007,2.944872891111214,8.880381983964366
3.3308512048497465,2.9207121306918795,8.880381983964366
3.3305135615446426,2.884346450060717,8.867593514988119
3.3173454726455915,2.8255635690404812,8.926696979716175
3.3538109495968103,2.776494808188844,8.914254145036583
3.329162988324227,2.776494808188844,8.877616909591124
3.3166701860353838,2.764538967981338,8.877271275294468
3.3041773837465405,2.7294186873717905,8.900774407467027
3.2920222247628006,2.74087636757065,8.864482806318222
3.231246429844103,2.7657843680029535,8.827845570872762
3.1826257939091445,2.7901942084266107,8.791208335427301
3.0972020377178637,2.8278052890793886,8.76632266606812
2.926016882030198,2.8425010093344474,8.703762858373512
2.742001280748585,2.809373368759484,8.640166147788939
2.460069120986848,2.776245728184521,8.453869261891738
2.4847170822594307,2.7747512481585828,8.405826094656652
2.9753128045753643,2.8484789294382002,8.450412918925185
3.4902188448587763,2.9117452505362507,8.603874546640133
3.7100246364814002,2.8601856896413826,8.690974389397267
3.6114327913910684,2.814604048850268,8.700652149703615
3.342668720528382,2.8664126897494584,8.576915071501022
3.0982149676331754,2.906514570445467,8.489469594447232
3.099227897548487,2.990454531902329,8.478754931250919
3.258595537557517,3.0121244922784327,8.554103207921772
3.4297806932451826,2.98646925183316,8.66505181714812
3.477726042569933,2.9134888105665118,8.688554949320679
3.4405852790085065,2.8651672897278435,8.626686410219383
3.3912893564633406,2.8415046893171554,8.589357906180611
3.355161522817226,2.8893280501471774,8.529217538562591
3.39297757298886,2.9727698515953933,8.531291344342522
3.3939905029041717,3.0554644130306405,8.460090679231532
3.345369866969213,3.0803724134629435,8.447647844551943
3.296073944424047,3.0574570530652245,8.446610941661977
3.3207219056966304,3.0811196534759127,8.459399410638222
3.4183008208716505,3.0557134930349634,8.50882511505993
3.455103941127973,3.043259492818812,8.533365150122455
3.491569418079192,3.031552732615629,8.58209958595085
3.4790766157903485,3.019596892408124,8.581753951654195
3.4787389724852447,2.98397845178993,8.59315988344382
3.49055648816388,2.948110931167413,8.61666301561638
3.5145291628262556,2.900038490333068,8.652608982468529
3.538501837488631,2.8524642095073687,8.70030651540696
3.5503193531672665,2.8292997691053268,8.760792517321635
3.573954384524538,2.745857967657111,8.831993182432624
3.560448652320383,2.6509584860100355,8.878653812481089
3.5719285246939148,2.5924246849941226,8.974394512654605
3.620211517323769,2.519693323731797,8.99824327912382
3.6684945099536237,2.471122722888806,9.03418924597597
3.7174527891936857,2.4462147224565025,9.04663208065556
3.7174527891936857,2.4459656424521796,9.034534880272625
3.70563527351505,2.493789003282202,9.011031748100065
3.6931424712262064,2.4820822430790193,9.01068611380341
3.656339350969884,2.471371802893129,9.03418924597597
3.6445218352912483,2.5079865635286147,9.04663208065556
3.644859478596352,2.5431068441381623,8.99893454771713
3.6090692882553412,2.6140946453702267,8.90284821324696
3.5243208186742683,2.6982836868314117,8.794319044097199
3.3912893564633406,2.8432482493474165,8.674038308861157
3.2704130532361524,2.976007891651593,8.553757573625116
3.173171781366236,3.0370324927107357,8.492925937413785
3.137381591025225,3.0965626137439406,8.42068836941283
3.1491991067038607,3.083859533523466,8.39649396864696
3.173847067976444,3.083112293510497,8.38474240256068
3.2103125449276626,3.0704092132900223,8.39718523724027
3.2592708241677246,3.0701601332856994,8.446265307365321
3.247115665183985,3.0579552130738707,8.421725272302796
3.283918785440308,3.0704092132900223,8.482902542810782
3.2953986578138394,3.023582172477292,8.566891676898017
3.307553816797579,3.0131208122957247,8.663669279961498
3.3436816504436937,2.9655465314700256,8.735906847962454
3.367991968411173,2.9650483714613793,8.73625248225911
3.367991968411173,2.9416348510550145,8.77219844911126
3.342668720528382,2.883599210047748,8.84339911422225
3.3663037518856536,2.8235709290058972,8.878999446777744
3.4274171901094554,2.7862089283574423,8.8793450810744
3.4878553417230496,2.724686167289653,8.878999446777744
3.5243208186742683,2.700027246861673,8.89109664716068
3.560786295625487,2.6743720064164007,8.842707845628938
3.5975894158818096,2.6604235261743105,8.794664678393854
3.5732790979143303,2.683837046580676,8.734178676479178
3.5371512642682155,2.732158567419344,8.698232709627028
3.439572349093195,2.769520568067799,8.649152639501976
3.4155996744308195,2.830545169126942,8.674038308861157
3.40344451544708,2.8449918093776776,8.78325874660423
3.464557953670882,2.8457390493906467,8.892824818643955
3.5509946397774743,2.892317010199054,8.919093025189758
3.6117704346961723,2.8671599297624275,8.93153585986935
3.6354054660534434,2.795175808513071,8.967136192424844
3.548968779946851,2.737140167505805,8.976813952731192
3.4017562989215606,2.6918076067190126,8.937757277209144
3.2292205700134797,2.6128492453486114,9.006538502243547
3.068840000089138,2.5127190836107522,9.232237697959452
3.006375988644921,2.434009802244674,9.435816298689417
3.0428414655961395,2.3966478015962194,9.411276263626892
3.115772419498577,2.3321360804765536,9.278207059414605
3.1394074508558485,2.231258678725726,9.04663208065556
3.0401403191553085,2.111451196646347,8.946398134625525
2.8557870745685916,2.0549100356650185,8.918401756596447
2.6592786709981353,2.012068274921457,8.9512370147787
2.499911030989105,1.9926400345842603,8.997206376233853
2.4259671471713564,1.9602596340222662,9.104353008196993
2.4013191858987732,1.9505455138536678,9.200784976963819
2.4745877831063146,1.9390878336548085,9.310351049003547
2.5353635780250126,1.8887736727815558,9.274059447854741
2.583646570654867,1.8407012319472105,9.334545449769417
2.5465058070934403,1.7936251111301573,9.333162912582795
2.447913962003108,1.7467980703174273,9.282354670974469
2.3128566399615575,1.714417669755433,9.316226832046686
2.19029212020885,1.7189011098332476,9.399524697540611
2.1173611663064125,1.7804238709010367,9.387427497157676
2.044430212403975,1.82999079176132,9.374984662478086
2.020795181046704,1.9037184730409378,9.436507567282726
2.009315308673172,1.9649921541044038,9.485933271704434
2.0711040335071815,2.0242731951332855,9.512201478250235
2.1447102740198267,2.0471885555310045,9.549875616585663
2.242964475805055,2.0691075959114316,9.551603788068938
2.3898393135252416,2.0785726360757066,9.59031482929433
2.4877558720053656,2.0521701556174654,9.591006097887641
2.58567243048549,2.0372253553580832,9.555751399628802
2.7193791793066255,1.9615050340438813,9.532248267456243
2.8179710243969573,2.0182952750295327,9.474181705618154
2.818983954312269,2.0870413562226897,9.293760602764092
2.7588834460037788,2.182189917874088,9.173479867528052
2.6504999450654343,2.3388612405932756,9.065987601268256
2.566426762094569,2.471371802893129,8.982344101477675
2.5066638970911828,2.603882365192982,8.923586271046277
2.5073391837013905,2.6504603260013893,8.839597136959041
2.5326624315841815,2.7216972072377765,8.829228108059382
2.5326624315841815,2.745857967657111,8.841670942738974
2.594113513113087,2.7563193278386784,8.830610645246004
2.618423831080566,2.730415007389083,8.758027442948393
2.6555645946419926,2.7518358877608637,8.661941108478223
2.6552269513368887,2.7403782075620042,8.698232709627028
2.5816207108242435,2.7182100871772543,8.708947372823342
2.5201696292953377,2.7079978070000097,8.732104870699246
2.483366509039015,2.684833366597968,8.731067967809281
2.4587185477664324,2.686327846623906,8.779111135044365
2.470873706750172,2.662416166208895,8.790862701130646
2.519156699380026,2.6130983253529343,8.790862701130646
2.6045804555713072,2.601142485145429,8.900774407467027
2.690341855067692,2.600644325136783,8.974394512654605
2.7757656112589726,2.5854504448730777,8.914945413629894
2.8611893674502538,2.5470921242073308,8.89109664716068
2.934457964657795,2.5226822837836735,8.9643711180516
2.970923441609014,2.5107264435761683,9.013105553879997
3.0202193641541797,2.534139963982533,9.038336857535834
3.068840000089138,2.508733803541584,9.026585291449553
3.0570224844105023,2.5446013241641006,9.002736524980339
3.0452049687318667,2.568762084583435,8.990984958894058
3.033049809748127,2.5802197647822944,8.942596157362317
3.058035414325814,2.626797725590701,8.895244258720544
3.0705282166146572,2.637757245780915,8.859298291868393
3.070865859919761,2.6865769266282293,8.896626795907164
3.071541146529969,2.7221953672464227,8.873123663734605
3.071878789835073,2.7580628878689395,8.86171773194498
3.071878789835073,2.7700187280764452,8.86171773194498
3.047906115172698,2.806882568716254,8.874160566624571
3.035750956188958,2.831790569148557,8.91079780207003
2.986792676948896,2.833285049174495,8.922203733859655
2.9749751612702604,2.869401649801335,8.91079780207003
2.902044207367823,2.9182213306486493,8.862063366241635
2.8172957377867496,3.0031576121228034,8.801922998623615
2.720054465916833,3.052724532983087,8.765285763178154
2.6471235120143954,3.1022914538433706,8.764940128881499
2.635643639640864,3.175022815105696,8.778419866451054
2.6849395621860297,3.2096449357065975,8.767359568958085
2.7460530004098316,3.208399535684982,8.768396471848051
2.83215204321132,3.22957133605244,8.721390207502932
2.9057582837239653,3.2387872962123923,8.662286742774878
2.9300686016914446,3.2121357357498277,8.553066305031805
2.966871721947767,3.1976890954990917,8.468731536647915
3.0036748422040898,3.1956964554645078,8.408591169029895
3.0036748422040898,3.2071541356633673,8.38474240256068
3.077618726021839,3.2417762562642687,8.39856777442689
3.1390698075507446,3.2512412964285438,8.338773041105526
3.261296683998348,3.2360474161648387,8.316306811822932
3.3835235604459513,3.197190935490446,8.317343714712898
3.493595277909815,3.182495215235387,8.306283417219928
3.5911741930848358,3.1555945747684992,8.283125919344025
3.6519499880035338,3.10552949389957,8.24683431819522
3.700570623938492,3.068167493251115,8.234737117812283
3.7120504963120236,3.0200950524167696,8.246143049601908
3.7245432986008673,3.0200950524167696,8.270337450367778
3.7485159732632423,2.984227531794253,8.306283417219928
3.7728262912307216,2.984974771807222,8.379212253814195
3.7485159732632423,2.998425092040666,8.415503854963001
3.736360814279503,2.998923252049312,8.427601055345935
3.687064891734337,2.9884618918677446,8.45075855322184
3.6499241281729105,2.953839771266843,8.48601325148068
3.661741643851546,2.9184704106529726,8.534056418715766
3.661404000546442,2.8940605702293154,8.521267949739519
3.661404000546442,2.8933133302163463,8.47287914820778
3.612783364611484,2.893562410220669,8.435896278465663
3.503049290452724,2.9443747311025676,8.447302210255287
3.4051327319725995,2.945869211128506,8.397530871536926
3.282905855524996,2.98397845178993,8.360202367498154
3.2099749016225587,3.021091372434062,8.323565132052693
3.1853269403499755,3.0096336922352025,8.323219497756039
3.148523820093653,2.985722011820191,8.285890993717267
3.0742422929708,2.938645891003138,8.25996842146812
3.0377768160195813,2.952345291240905,8.29591438832027
2.9766633777957794,2.953839771266843,8.30697468581324
3.025621657035842,2.954337931275489,8.392691991383751
3.1596660491620807,2.905767330432498,8.526798098486005
3.329500631629331,2.7959230485260402,8.636018536229075
3.4628697371453625,2.6875732466455213,8.793282141207232
3.4375464892625716,2.594168245024384,8.900083138873716
3.3396299307824475,2.6210688854912716,8.935683471429211
3.1559519728059384,2.6265486455863782,9.00550159935358
2.9857797470335843,2.7513377277522175,9.041793200502386
2.9000183475371997,2.753330367786802,9.04075629761242
2.887525545248356,2.7182100871772543,9.07601099587126
2.9847668171182726,2.6561891661008192,9.08845383055085
3.0691776433942417,2.5336418039738873,9.063222526895014
3.142446240601783,2.5191951637231513,9.02762219433952
3.1907292332316377,2.45667608263807,8.966790558128189
3.178236430942794,2.432515322218736,8.941904888769008
3.129278151702732,2.4093508818166938,8.928770785496106
3.1167853494138886,2.3854392014016828,8.91598231651986
3.1654059853488468,2.347579040744582,8.879690715371055
3.2261817802675448,2.3219238002993094,8.867939149284775
3.2623096139136596,2.261895519257459,8.91598231651986
3.3112678931537216,2.272605959443349,8.904576384730236
3.384536490361263,2.2601519592271972,8.966099289534878
3.4459875718901687,2.2591556392099053,8.990984958894058
3.470297889857648,2.2589065592055824,9.015524993956584
3.507438653419074,2.282320079611947,9.01656189684655
3.532086614691657,2.2937777598108067,9.016907531143206
3.532086614691657,2.3067299200356044,9.0656419669716
3.5692273782530837,2.342846520662444,9.115413305689962
3.56888973494798,2.3306416004506154,9.115067671393307
3.60636814181451,2.3772195612590226,9.080158607431123
3.56888973494798,2.3296452804333234,9.054581669478631
3.532424257996761,2.3298943604376463,9.02969600011945
3.4470005018054803,2.3675054410904246,9.005155965056925
3.3983798658705218,2.403871121721587,8.96886436390812
3.3257865552731882,2.465892042798022,8.980961564291055
3.3139690395945527,2.515209883653983,9.030041634416106
3.3143066828996566,2.5513264842808225,9.030732903009417
3.3389546441722397,2.5742418446785416,9.007229770836856
3.3392922874773436,2.58644676489037,9.007575405133512
3.3267994851885,2.5871940049033393,9.031424171602728
3.3149819695098643,2.609860285296735,8.947089403218836
3.3271371284936038,2.586197684886047,8.983035370070986
3.303164453831229,2.633522885707423,8.911143436366686
3.3278124151038115,2.6447314859019597,8.899391870280407
3.3035020971363327,2.656438246105142,8.863100269131602
3.315657256120072,2.6442333258933135,8.863100269131602
3.3149819695098643,2.5966590450676144,8.886257767007505
3.277841205948438,2.5602933644364514,8.824734862202863
3.227869996793064,2.4761043229752664,8.761829420211601
3.1174606360240964,2.441233122370042,8.687172412134059
3.0313615932226075,2.396398721591896,8.757681808651737
2.9817280273723377,2.3500698407878122,8.792590872613921
2.981390384067234,2.3139532401609726,8.791899604020612
2.9932078997458698,2.2902906397502845,8.815748370489827
3.0300110200021924,2.301997399953467,8.852731240231943
3.0175182177133486,2.2910378797632536,8.888677207084093
2.9935455430509736,2.3151986401825875,8.864482806318222
2.9688975817783905,2.3159458801955566,8.876580006701158
2.9932078997458698,2.2922832797848685,8.924623173936242
2.9932078997458698,2.317191280217172,8.973703244061294
3.0175182177133486,2.2920341997805456,8.937066008615833
3.054658981274775,2.3147004801739417,8.913908510739928
3.0789692992422544,2.301997399953467,8.901811310356994
3.1036172605148376,2.301001079936175,8.890059744270713
3.0793069425473583,2.3371176805630145,8.854113777418563
3.1039549038199414,2.348326280757551,8.842707845628938
3.0924750314464093,2.4083545617994018,8.831301913839315
3.1049678337352526,2.431768082205767,8.807798781666754
3.043854395511451,2.4437239224132723,8.734524310775834
3.0080642051704403,2.515209883653983,8.662632377071533
2.9472884102517423,2.5528209643067608,8.662632377071533
2.874357456349305,2.614841885383196,8.674729577454467
2.838567266008294,2.6748701664250465,8.639129244898973
2.838567266008294,2.6992800068487037,8.651572079578564
2.887525545248356,2.699030926844381,8.700652149703615
2.88786318855346,2.722942607259392,8.688900583617334
2.961469429066105,2.7216972072377765,8.71413188727317
2.9857797470335843,2.708994127017302,8.714477521569826
3.04723082856249,2.7326567274279903,8.763903225991532
3.095851464497448,2.708994127017302,8.848929262968735
3.145147387042614,2.731909487415021,8.837868965475765
3.1694577050100934,2.7197045672031925,8.86240900053829
3.181612863993833,2.707748726995687,8.88660340130416
3.1937680229775727,2.708246887004333,8.922895002452966
3.193430379672469,2.6970382868097964,8.959186603601772
3.205585538656208,2.6967892068054735,8.971283803984706
3.205585538656208,2.6736247664034316,9.007229770836856
3.242388658912531,2.685082446602291,9.032115440196037
3.254881461201374,2.7214481272334536,9.057001109555218
3.2434015888278425,2.7817254882796276,9.058038012445184
3.231584073149207,2.8178420889064673,9.04663208065556
3.219766557470571,2.853211449520338,8.998588913420475
3.183638723824456,2.9017820503633294,8.974740146951259
3.1468356035681335,2.9017820503633294,8.925660076826208
3.13434280127929,2.878368529956964,8.949508843295424
3.109694840006707,2.878617609961287,8.937066008615833
3.134680444584394,2.901532970359006,8.901465676060338
3.1586531192467695,2.8649182097235206,8.901120041763683
3.170808278230509,2.8646691297191973,8.901120041763683
3.1833010805193522,2.8641709697105515,8.889368475677403
3.1833010805193522,2.863921889706228,8.877271275294468
3.183638723824456,2.899042170315776,8.829573742356038
3.1714835648407167,2.8982949303028067,8.780839306527643
3.18397636712956,2.921708450709172,8.757336174355082
3.1596660491620807,2.9334152109123544,8.708601738526687
3.1471732468732374,2.8965513702725456,8.659521668401636
3.171145921535613,2.871643369840242,8.634981633339109
3.159328405856977,2.8831010500391017,8.598690032190305
3.1468356035681335,2.8703979698186273,8.537858395978974
3.1225252856006542,2.8703979698186273,8.513318360916447
3.085384522039228,2.846984449412262,8.500184257643546
3.061074204071749,2.8594384496284135,8.500184257643546
3.0489190450880095,2.859687529632737,8.500184257643546
3.011778281526583,2.8372703292436636,8.535438955902386
3.011778281526583,2.8380175692566327,8.571730557051191
2.9989478359326354,2.8038936086643775,8.655719691138428
2.9749751612702604,2.8412556093128325,8.704454126966823
2.9499895566925733,2.794179488495779,8.727611624842728
2.9621447156763128,2.7949267285087482,8.776000426374468
2.9496519133874695,2.7837181283142116,8.799849192843682
2.986455033643792,2.7949267285087482,8.800540461436993
3.0232581539001147,2.794179488495779,8.81332893041324
3.047906115172698,2.8051390086859924,8.789480163944024
3.0850468787341243,2.8405083692998634,8.79051706683399
3.085722165344332,2.899789410328745,8.755608002871806
3.0860598086494355,2.9356569309512617,8.743856436785526
3.073904649665696,2.9478618511630903,8.744202071082182
3.074579936275904,3.007890132204941,8.733141773589212
3.0749175795810078,3.0193478124038005,8.708947372823342
3.0752552228861116,3.0549662530219943,8.685444240650781
3.0759305094963194,3.114994534063845,8.686481143540748
3.063437707207476,3.1030386938563397,8.674038308861157
3.1005784707689026,3.113998214046553,8.662632377071533
3.148861463398757,3.0651785331992385,8.674729577454467
3.197819742638819,3.05297361298741,8.723464013282864
3.2217924173011943,3.0041539321400954,8.710675544306618
3.2214547739960904,2.9807404117337306,8.746621511158768
3.183638723824456,2.9097526105016662,8.769087740441362
3.1340051579741863,2.8407574493041863,8.864137172021566
3.1090195533964993,2.794428568500102,8.923240636749622
3.0836963055137088,2.722693527255069,8.921512465266344
3.1080066234811876,2.722942607259392,8.958149700711806
3.0951761778872404,2.6753683264336927,8.969209998204775
3.070865859919761,2.662914326217541,8.92047556237638
3.058373057630918,2.638504485793884,8.883492692634263
3.0458802553420745,2.6135964853615805,8.822315422126277
3.0820080889881893,2.564527724509943,8.809872587446687
3.1309663682282514,2.562036924466713,8.737980653742387
3.1795870041632095,2.523927683805289,8.689591852210645
3.1914045198418455,2.4753570829622977,8.6768033832344
3.252517958065647,2.473613522932036,8.665397451444775
3.264673117049387,2.4606613627072385,8.62910585029597
3.3011385940006055,2.424295682076076,8.652954616765184
3.3251112686629805,2.3764723212460535,8.70099778400027
3.3251112686629805,2.388677241457882,8.701343418296926
3.3500968732406675,2.435504282270612,8.666088720038086
3.3254489119680843,2.411592601855601,8.65330025106184
3.337941714256928,2.4360024422792583,8.67818592042102
3.338279357562032,2.4604122827029156,8.702725955483546
3.3139690395945527,2.4850712031308957,8.702725955483546
3.27716591933823,2.4980233633556934,8.714477521569826
3.252855601370751,2.5114736835891374,8.762866323101568
3.2407004423870114,2.5132172436193985,8.835449525399177
3.228545283403272,2.526169403844196,8.871741126547983
3.203559678825585,2.5044994434680925,8.967827461018153
3.178574074247898,2.471122722888806,9.075665361574604
3.129615795007836,2.4614086027202076,9.13546009489597
3.067827070173826,2.4153288019204466,9.170023524561499
3.055334267884983,2.3924134415227276,9.205623857116993
2.9935455430509736,2.3473299607402587,9.288921722610919
2.932094461522068,2.3373667605673374,9.324176420869758
2.883136182282006,2.3383630805846294,9.323485152276447
2.8338402597368395,2.3159458801955566,9.346642650152353
2.748078860240455,2.3176894402258177,9.333162912582795
2.6862901354064452,2.2828182396205934,9.319683175013239
2.637669499471487,2.3077262400528964,9.30724034033365
2.613359181504008,2.308722560070189,9.331089106802864
2.6136968248091117,2.3445900806927056,9.319683175013239
2.650837588370538,2.3916662015097585,9.308968511816925
2.6758231929482252,2.4148306419118004,9.2975625800273
2.6879783519319647,2.4143324819031546,9.285811013941021
2.6390200726919026,2.426786482119306,9.248828144198905
2.651175231675642,2.402127561691326,9.236730943815969
2.651175231675642,2.3891754014665283,9.187996507987574
2.6751479063380175,2.364516481038548,9.175899307604638
2.7237685422729756,2.3147004801739417,9.151359272542113
2.7842066938865697,2.2402255588813547,9.090182002034126
2.8817856090615903,2.189662318003779,9.078776070244501
2.9300686016914446,2.152300317355324,9.066678869861567
2.966871721947767,2.126894156914375,9.042484469095697
3.003337198898986,2.1136929166852543,9.030732903009417
3.052295478139048,2.1246524368754676,9.031424171602728
3.076605796106527,2.112945676672285,9.080158607431123
3.1009161140740065,2.1012389164691028,9.116450208579929
3.162367195602912,2.0984990364215492,9.056655475258564
3.1741847112815478,2.049928435578558,9.043867006282317
3.1984950292490266,2.0387198353840215,9.104698642493648
3.1860022269601833,2.0387198353840215,9.092255807814059
3.2109878315378704,2.0486830355569428,9.020363874109758
3.186677513570391,2.072345635967631,8.971975072578017
3.187015156875495,2.096506396386965,8.972320706874672
3.187352800180599,2.143831597208341,8.937066008615833
3.2130136913684937,2.250686919062922,8.90284821324696
3.2629849005238674,2.333879640506815,8.904922019026891
3.2889834350168656,2.4516944825516096,8.823006690719588
3.302489167221021,2.5587988844105136,8.776691694967779
3.291009294847489,2.6414934458457604,8.693048195177198
3.2791917791688534,2.676862806459631,8.64535066223877
3.2677119067953218,2.725184327298299,8.633944730449144
3.279867065779061,2.7368910875014816,8.6342903647458
3.328825345019123,2.7224444472507456,8.574149997127778
3.3777836242591857,2.708994127017302,8.550301230658564
3.364953178665238,2.6499621659927435,8.585555928917403
3.352122733071291,2.6145928053788725,8.608713426793308
3.3396299307824475,2.579721604773648,8.656410959731737
3.3274747717987077,2.593421005011415,8.728994162029348
3.2535308879809586,2.5844541248557857,8.800540461436993
3.1802622907734173,2.5991498451108446,8.860335194758358
3.106993693565876,2.62505416556044,8.871741126547983
2.996921976102012,2.6282922056166393,8.906650190510168
2.899005417621888,2.655691006092173,8.966444923831533
2.764623382190545,2.683587966576353,9.001353987793717
2.654889308031785,2.710239527038917,9.012414285286686
2.5569727495516603,2.7366420074971587,9.01137738239672
2.483704152344119,2.7630444879554,9.046977714952215
2.3979427528477344,2.7652862079943072,9.058038012445184
2.325011798945297,2.790692368435257,9.04524954346894
2.276391163010339,2.8265598890577732,8.972666341171328
2.1784746045302144,2.839512049282571,8.911143436366686
2.13019161190036,2.875628649909411,8.85065743445201
2.105881293932881,2.898793090311453,8.778074232154399
2.1551772164780467,2.9331661309080315,8.755262368575151
2.2527561316530673,2.8948078102422845,8.743856436785526
2.363165492422035,2.878368529956964,8.648115736612011
2.5097026868371177,2.8499734094641385,8.589012271883956
2.7051981604922624,2.808377048742192,8.542697276132147
2.9131864364362507,2.779732848245043,8.545116716208735
3.1086819100913954,2.738634647531743,8.522996121222796
3.2926975113730084,2.7580628878689395,8.501566794830168
3.463882667060674,2.754575767808417,8.528180635672625
3.647898268342287,2.7884506483963496,8.628068947406003
3.7954483926726814,2.8210801289626666,8.630834021779247
3.9055201101365453,2.830047009118296,8.608367792496653
4.003774311921774,2.8407574493041863,8.65848476551167
4.065225393450679,2.863174649693259,8.6474244680187
4.102028513707002,2.8743832498877957,8.648115736612011
4.1023661570121055,2.90925445049302,8.588321003290645
4.0665759666710946,2.9939416519628512,8.565163505414741
3.993645012768657,3.031303652611306,8.55272067073515
3.9210517021713236,3.115741774076814,8.480483102734196
3.8602759072526256,3.153103774725269,8.46838590235126
3.799500112333928,3.1787590151705416,8.492234668820474
3.7626969920776054,3.1797553351878336,8.491543400227163
3.713738712837543,3.168048574984651,8.454560530485049
3.6884154649547525,3.121470614176244,8.501566794830168
3.687402535039441,3.0250766525032304,8.487741422963957
3.674572089445493,2.977751451681854,8.51089892083986
3.613121007916588,2.930675330864801,8.484976348590713
3.551332283082578,2.883350130043425,8.446956575958632
3.477726042569933,2.8731378498661804,8.458016873451601
3.428430120024767,2.8507206494771076,8.481174371327505
3.3916269997684445,2.840010209291217,8.504677503500066
3.354486236207018,2.8056371686946386,8.551683767845185
3.403106872141976,2.7819745682839505,8.62461260443945
3.4027692288368723,2.7707659680894143,8.673001405971192
3.390276426548029,2.746854287674403,8.660212936994945
3.389938783242925,2.7224444472507456,8.635327267635764
3.364953178665238,2.662914326217541,8.646041930832078
3.315657256120072,2.6282922056166393,8.657102228325048
3.302826810526125,2.591926524985477,8.619773724286278
3.2785164925586456,2.594168245024384,8.716205693053103
3.351785089766187,2.592673764998446,8.729339796326004
3.3885882100225095,2.5931719250070917,8.79051706683399
3.3757577644285623,2.557802564393221,8.81402019900655
3.387575280107198,2.50923196355023,8.800886095733649
3.4726613929933747,2.448705522499733,8.88591213271085
3.558085149184656,2.435504282270612,8.923240636749622
3.680649668937363,2.43201716221009,8.888331572787438
3.7174527891936857,2.442229442387334,8.840634039849007
3.65600170766478,2.433760722240351,8.948817574702113
3.5087892266394896,2.4130870818815393,8.946398134625525
3.4355206294319482,2.4130870818815393,8.860335194758358
3.4105350248542616,2.389424481470851,8.847546725782113
3.374069547903043,2.3906698814924665,8.871395492251327
3.398042222565418,2.365761881060163,8.859298291868393
3.4341700562115327,2.305235440009666,8.870704223658018
3.4827906921464913,2.2683715993698574,8.894898624423888
3.5435664870651893,2.2315077587300487,8.919093025189758
3.6168350842727306,2.204108958254515,8.835103891102522
3.67862380910674,2.2384819988510936,8.824389227906208
3.7154269293630624,2.249192439036984,8.800886095733649
3.7279197316519057,2.272356879439026,8.765285763178154
3.7282573749570096,2.3062317600269586,8.657102228325048
3.7900460997910193,2.328399880411708,8.621847530066209
3.839342022336185,2.36302200101261,8.611132866869895
3.9126106195437265,2.349571680779166,8.62392133584614
3.9737240577675284,2.334875960524107,8.564126602524775
4.071640616247652,2.3313888404635845,8.492925937413785
4.1574020157440374,2.304488199996697,8.445228404475355
4.230332969646475,2.26612987933095,8.40893680332655
4.279628892191641,2.2765912395125176,8.385779305450646
4.31609436914286,2.2760930795038714,8.41031934051317
4.30393921015912,2.264884479309335,8.434168106982387
4.229657683036267,2.218306518500928,8.420342735116174
4.156051442523622,2.1816917578654422,8.309739760186481
4.131403481251039,2.157530997446108,8.272756890444366
4.05745959743329,2.1371064370916195,8.368151956321226
3.972035841242009,2.1520512373510012,8.427601055345935
3.910584759713103,2.142586197186726,8.47495295398771
3.89809195742426,2.143831597208341,8.535438955902386
3.861626480473041,2.157780077450431,8.595579323520406
3.799837755639032,2.1376045971002653,8.715514424459792
3.726906801736594,2.1767101577789814,8.787751992460748
3.6654557202076887,2.180197277839504,8.895935527313853
3.5918494796950435,2.1846807179173187,9.052162229402045
3.506088080198659,2.1764610777746585,9.147557295278904
3.444974641974857,2.2011199982026386,9.09882285945051
3.3835235604459513,2.179699117830858,9.170369158858154
3.2488038817095046,2.1841825579086724,9.240878555375833
3.1502120366191724,2.1532966373726166,9.384316788487778
3.0398026758502046,2.1328720770181278,9.443074618919178
2.953365989743612,2.0623824357947096,9.428212344163
2.8672669469421233,2.0163026349949487,9.426138538383068
2.7322096249005727,1.9958780746404599,9.448259133369007
2.609982748452969,2.0225296351030244,9.446876596182387
2.5127414765830527,2.0843014761751366,9.410584995033581
2.4394728793755114,2.1224107168365602,9.434433761502795
2.3911898867456567,2.183684397900026,9.43477939579945
2.3672172120832817,2.219053758513897,9.37463902818143
2.3557373397097496,2.26612987933095,9.30274709447713
2.380385300982333,2.289294319732992,9.291341162687505
2.4296812235274987,2.2990084399015904,9.23154642936614
2.5154426230238838,2.320678400277694,9.209080200083546
2.589386506841633,2.34085388062786,9.089490733440815
2.6754855496431214,2.3747287612157923,9.079121704541157
2.7494294334608704,2.4078564017907556,9.020363874109758
2.835866119567463,2.464148482767761,8.925660076826208
2.922302805674055,2.5199424037361204,8.806761878776788
3.0205570074592836,2.5523228042981145,8.724155281876174
3.1313040115333552,2.57249828464828,8.665397451444775
3.26669897688001,2.6285412856209627,8.608022158199997
3.3278124151038115,2.6270468055950245,8.608713426793308
3.37643305103877,2.602138805162721,8.621156261472898
3.4132361712950927,2.5904320449595386,8.681987897684229
3.4375464892625716,2.577479884734741,8.657793496918359
3.461856807230051,2.5650258845185894,8.669890697301295
3.486504768502634,2.5769817247260947,8.694776366660475
3.510815086470113,2.5642786445056203,8.68267916627754
3.5229702454538527,2.576483564717449,8.707219201340065
3.4986599274863734,2.588439404924954,8.683024800574195
3.474349609518894,2.6016406451540752,8.707219201340065
3.475024896129102,2.662167086204572,8.732450504995901
3.463882667060674,2.756817487847324,8.649152639501976
3.4027692288368723,2.7700187280764452,8.63636417052573
3.354486236207018,2.830545169126942,8.600763837970236
3.318358402560903,2.8803611699915486,8.649498273798631
3.318696045866007,2.9045219304108825,8.649843908095287
3.319033689171111,2.9401403710290763,8.626340775922728
3.3315264914599543,2.9638029714397645,8.627032044516039
3.3197089757813187,3.0004177320752503,8.639474879195628
3.3200466190864226,3.0243294124902613,8.627723313109348
3.332539421375266,3.0472447728879803,8.592122980553853
3.3450322236641092,3.08336137351482,8.6049114495301
3.357187382647849,3.08336137351482,8.61735428420969
3.3700178282417963,3.1187307341286905,8.605948352420066
3.345369866969213,3.1192288941373367,8.593505517740475
3.3693425416315885,3.0709073732986685,8.61735428420969
3.3690048983264846,3.0352889326804746,8.64085741638225
3.4176255342614428,3.0098827722395254,8.62910585029597
3.416950247651235,2.9496054111933514,8.615626112726414
3.4409229223136104,2.877372209939672,8.639129244898973
3.464895596975986,2.8415046893171554,8.675075211751123
3.5010234306221006,2.7921868484611947,8.650535176688598
3.5006857873169968,2.7443634876311727,8.661595474181567
3.4635450237555703,2.7211990472291308,8.6605585712916
3.4267419034992477,2.7344002874582514,8.68475297205747
3.3781212675642895,2.747103367678726,8.65986730269829
3.3534733062917064,2.723440767268038,8.647078833722045
3.328825345019123,2.736392927492836,8.671273234487915
3.2923598680679045,2.7493450877176335,8.67092760019126
3.2920222247628006,2.725184327298299,8.670581965894604
3.255219104506478,2.701521726887611,8.64535066223877
3.2427263022176347,2.6903131266930744,8.669199428707984
3.2302334999287914,2.6661523662737405,8.644313759348803
3.230908786538999,2.725433407302622,8.609059061089964
3.1819505072989367,2.738136487523097,8.584519026027438
3.145822673652822,2.7869561683704114,8.584864660324092
3.1586531192467695,2.8474826094209083,8.62253879865952
3.18397636712956,2.907510890462759,8.648115736612011
3.209299615012351,2.978747771699146,8.625303873032761
3.2214547739960904,2.978747771699146,8.649843908095287
3.257920250947309,2.9670410114959638,8.710675544306618
3.2822305689147884,2.9426311710723065,8.710675544306618
3.34334400713859,2.929180850838863,8.711021178603273
3.3794718407847046,2.8801120899872252,8.710675544306618
3.3794718407847046,2.8801120899872252,8.710675544306618
3.3791341974796008,2.8447427293733547,8.734524310775834
3.3794718407847046,2.8679071697753966,8.698578343923684
3.3791341974796008,2.8447427293733547,8.734524310775834
3.342331077223278,2.8340322891874643,8.770124643331329
3.305190313661852,2.822823688992928,8.756990540058426
3.2926975113730084,2.799410168586563,8.780839306527643
3.2923598680679045,2.7640408079726924,8.816439639083137
3.328825345019123,2.7284223673544985,8.876925640997813
3.3527980196814986,2.7027671269092264,8.828191205169416
3.3774459809540818,2.6900640466887515,8.816094004786482
3.3403052173926553,2.654445606070558,8.80295990151358
3.3153196128149682,2.6312811656685158,8.814365833303205
3.266361333574906,2.6200725654739796,8.801231730030304
3.2538685312860625,2.5969081250719372,8.825080496499519
3.2292205700134797,2.586197684886047,8.87277802943795
3.216390124419532,2.5515755642851454,8.92047556237638
3.228882926708376,2.563531404492651,8.93291839705597
3.216052481114428,2.527165723861488,8.908032727696789
3.1917421631469494,2.539868804081963,8.907687093400133
3.1795870041632095,2.5279129638744573,8.895244258720544
3.1552766861957307,2.5518246442894683,8.858952657571738
3.167769488484574,2.5625350844753587,8.810909490336652
3.1556143295008345,2.5625350844753587,8.798812289953718
3.1920798064520532,2.549333844246238,8.774963523484502
3.2042349654357927,2.5241767638096118,8.738326288039042
3.228207640098168,2.4878110831784492,8.75007785412532
3.251842671455439,2.4275337221322753,8.761483785914946
3.288308148406658,2.3911680415011123,8.797429752767096
3.3365911410365126,2.3298943604376463,8.784986918087505
3.39736693595521,2.2673752793525654,8.73625248225911
3.4459875718901687,2.242965438928908,8.77288971770457
3.4331571262962215,2.2073469983107143,8.784295649494196
3.494270564520023,2.1936475980729475,8.772544083407915
3.5310736847763455,2.18069543784815,8.760792517321635
3.579694320711304,2.1682414376319983,8.797775387063751
3.604004638678783,2.1560365174201697,8.821969787829621
3.6404701156300017,2.1313775969921895,8.834066988212557
3.6526252746137415,2.119172676780361,8.834066988212557
3.6276396700360545,2.072843795976277,8.893516087237266
3.6029917087634713,2.074587356006538,8.953656454855286
3.54187827053967,2.0763309160367993,8.976813952731192
3.5172303092670867,2.0770781560497684,8.988565518817472
3.431468909770702,2.068111275894139,9.048014617842181
3.3825106305306396,2.0820597561362293,9.083614950397676
3.3092420333230983,2.0835542361621675,9.070480847124776
3.211663118148078,2.1460733172472484,9.08257804750771
3.1755352845019633,2.183684397900026,9.118869648656515
3.0897738850055783,2.186175197943257,9.154124346915355
3.0536460513594634,2.235493038799217,9.166567181594946
2.9800398108468182,2.2372365988294782,9.177627479087915
2.906433570334173,2.239727398872709,9.212882177346755
2.832827329821528,2.218306518500928,9.259888441691874
2.783869050581466,2.219053758513897,9.247099972715628
2.722755612357664,2.2198009985268663,9.210117102973513
2.648811728539915,2.1856770379346107,9.220486131873171
2.5876982903161134,2.210834118371237,9.20804329719358
2.514429693108572,2.2230390385830656,9.13476882630266
2.4779642161573534,2.247448879006723,9.098131590857198
2.4533162548847702,2.235493038799217,9.073591555794673
2.429343580222395,2.272605959443349,9.098131590857198
2.4414987392061347,2.2599028792228744,9.086034390474262
2.4533162548847702,2.2230390385830656,9.049051520732148
2.5262472087872077,2.174219357735751,9.097785956560543
2.599178162689645,2.136857357087296,9.122325991623068
2.6970947211697696,2.1231579568495293,9.147557295278904
2.8071664386336335,2.096755476391288,9.160691398551807
2.9172381560974974,2.0947628363567037,9.186268336504297
2.990169109999935,2.056902675699603,9.186613970800952
3.0512825482237362,2.043701435470482,9.199402439777199
3.088085668480059,2.04270511545319,9.187996507987574
3.1248887887363814,2.042206955444544,9.200439342667163
3.1741847112815478,2.0651223158422627,9.20147624555713
3.2109878315378704,2.0626315157990325,9.11714147717324
3.235298149505349,2.036727195349437,9.044558274875628
3.247453308489089,2.0474376355353274,8.996515107640542
3.2842564287454117,2.0464413155180354,8.984763541554264
3.297086874339359,2.105473276542594,8.949854477592078
3.3473957267998364,2.1988782781637313,8.867593514988119
3.4338324129064293,2.2696169993914728,8.894207355830577
3.4351829861268444,2.3891754014665283,8.872086760844638
3.4486887183309998,2.496528883329755,8.837868965475765
3.4493640049412075,2.5670185245531734,8.75457109998184
3.474687252823998,2.6265486455863782,8.755953637168462
3.475024896129102,2.6619180062002488,8.720353304612967
3.500348144011893,2.732905807432313,8.697887075330373
3.51317858960584,2.7672788480288917,8.613897941243136
3.524658461979372,2.718459167181577,8.601109472266891
3.5125033029956323,2.7189573271902234,8.612861038353172
3.4632073804504664,2.6960419667925044,8.611824135463205
3.475362539434206,2.684335206589322,8.636018536229075
3.4875176984179457,2.6721302863774934,8.636018536229075
3.4628697371453625,2.6494640059840973,8.683716069167506
3.425391330278832,2.615589125396165,8.754916734278495
3.400743369006249,2.5804688447866173,8.76632266606812
3.3885882100225095,2.5931719250070917,8.79051706683399
3.3274747717987077,2.618079925439395,8.765977031771465
3.242051015607427,2.631530245672839,8.740745728115629
3.180599934078521,2.609113045283766,8.751460391311943
3.131641654838459,2.6108566053140274,8.774963523484502
3.0945008912770327,2.5754872447001564,8.773926620594537
3.0455426120369706,2.5886884849292775,8.773580986297882
3.0333874530532308,2.588439404924954,8.749040951235356
2.996584332796908,2.6016406451540752,8.760792517321635
2.9844291738131687,2.6026369651713672,8.809181318853376
2.923315735589367,2.616336365409134,8.820587250643001
2.923315735589367,2.6043805252016283,8.820587250643001
2.9108229333005236,2.6051277652145974,8.844436017112216
2.9111605766056274,2.617083605422103,8.844781651408871
2.9358085378782106,2.652203886031651,8.821624153532966
2.9604564991507933,2.6644088062434794,8.858261388978427
3.0100900650010636,2.7114849270605323,8.872086760844638
3.0229205105950108,2.7590592078862315,8.861026463351669
3.0600612741564372,2.792435928465518,8.765285763178154
3.0482437584778017,2.81560036886756,8.705145395560134
3.011778281526583,2.840010209291217,8.680605360497609
2.9749751612702604,2.853709609528984,8.716896961646414
2.9753128045753643,2.8895771301515008,8.717242595943068
2.999960765847947,2.900785730346037,8.705836664153445
3.0242710838154263,2.8883317301298854,8.705836664153445
3.0978773243280715,2.899042170315776,8.731413602105935
3.1225252856006542,2.8992912503200987,8.768050837551396
3.1586531192467695,2.8504715694727847,8.779802403637676
3.195118596197988,2.8141058888416217,8.803996804403546
3.2437392321329463,2.7904432884309336,8.876580006701158
3.255556747811582,2.7665316080159226,8.900774407467027
3.31633254273028,2.7179610071729314,8.949163208998769
3.377108337648978,2.680349926520153,8.937066008615833
3.3760954077336662,2.5966590450676144,8.959877872195083
3.3879129234123018,2.548088444224623,8.947089403218836
3.3750824778183546,2.5005141633989236,8.958149700711806
3.3750824778183546,2.4888074031957412,8.98199846718102
3.338617000867136,2.52567124383555,8.970246901094741
3.3139690395945527,2.526418483848519,8.98199846718102
3.2896587216270734,2.5259203238398733,8.933264031352625
3.228545283403272,2.538125244051702,8.872086760844638
3.167094201874366,2.5035031234508,8.870358589361363
3.1059807636505643,2.517202523688567,8.882110155447641
3.057360127715606,2.541861444116547,8.857570120385116
3.0452049687318667,2.5667694445488505,8.882110155447641
3.0208946507643875,2.5904320449595386,8.833721353915902
2.984091530508065,2.578476204752033,8.796738484173785
2.922978092284263,2.5914283649768306,8.771852814814604
2.8861749720279404,2.5794725247693253,8.734869945072488
2.873682169739097,2.556308084367283,8.758373077245048
2.8372166927878784,2.58071792479094,8.734178676479178
2.825061533804139,2.5809670047952635,8.733833042182523
2.874019813044201,2.5916774449811535,8.722772744689554
2.935133251268003,2.579223444765002,8.771852814814604
3.0208946507643875,2.577978044743387,8.809181318853376
3.0941632479719288,2.564527724509943,8.821969787829621
3.142783883906887,2.5388724840646706,8.798121021360407
3.1549390428906268,2.502755883437831,8.809872587446687
3.154601399585523,2.4910491232346486,8.833721353915902
3.154263756280419,2.4676356028282833,8.857570120385116
3.1910668765367416,2.4544343625991627,8.845818554298836
3.178574074247898,2.4546834426034856,8.845472920002182
3.1910668765367416,2.4663902028066684,8.845818554298836
3.154263756280419,2.4676356028282833,8.857570120385116
3.1910668765367416,2.478595123018497,8.846164188595491
3.2650107603544907,2.5127190836107522,8.835795159695833
3.3018138806108133,2.5234295237966426,8.812292027523274
3.351447446461083,2.569758404600727,8.77738296356109
3.400743369006249,2.5921756049897997,8.754225465685185
3.4375464892625716,2.602387885167044,8.706527932746754
3.450376934856519,2.6375081657765915,8.671273234487915
3.451052221466727,2.6840861265849987,8.599381300783614
3.463882667060674,2.7433671676138807,8.564126602524775
3.4888682716383608,2.778985608232074,8.577260705797677
3.51317858960584,2.7911905284439027,8.614243575539792
3.5503193531672665,2.802648208642762,8.627032044516039
3.5989399891022247,2.7884506483963496,8.578988877280953
3.6239255936799117,2.8108678487854224,8.519194143959588
3.6114327913910684,2.800157408599532,8.567237311194672
3.574292027829642,2.777491128206136,8.602837643750167
3.5371512642682155,2.7423708475965882,8.601455106563547
3.4878553417230496,2.707748726995687,8.62461260443945
3.42606661688904,2.6499621659927435,8.67092760019126
3.3760954077336662,2.579970684777971,8.717588230239723
3.3392922874773436,2.557802564393221,8.764940128881499
3.2650107603544907,2.488060163182772,8.810909490336652
3.203222035520481,2.4424785223916574,8.857915754681772
3.1414333106864714,2.408105481795079,8.880381983964366
3.1164477061087847,2.3737324411985004,8.928079516902796
3.0793069425473583,2.340106640614891,9.01137738239672
3.0296733766970885,2.294524999823776,9.08257804750771
3.016842931103141,2.2469507189980766,9.093638345000679
3.0408156057655162,2.186175197943257,9.092947076407368
3.051957834833944,2.0788217160800295,9.151704906838768
3.05162019152884,2.0556572756779876,9.187650873690918
3.063100063902372,1.9956289946361367,9.210808371566824
3.123538215515966,1.9351025535856399,9.258851538801908
3.0867350952596433,1.912685353196567,9.294451871357403
3.036088599494062,1.7946214311474495,9.352172798898836
2.9742998746600526,1.7365857901401829,9.38639059426771
2.899680704232096,1.6180237080824194,9.383279885597812
2.874357456349305,1.5582445070448916,9.35770294764532
2.8007512158366596,1.5348309866385266,9.307931608926959
2.690341855067692,1.5236223864439902,9.221177400466482
2.5434670173475054,1.5261131864872204,9.171060427451465
2.421240140899902,1.5288530665347737,9.169332255968188
2.3479715436923607,1.5415561467552485,9.107809351163546
2.2625477875010795,1.5784199873950573,9.046977714952215
2.2142647948712253,1.6511513486573828,9.023474582779656
2.2031225658027975,1.7343440701012756,8.964025483754945
2.228783456990692,1.842693871981795,9.002736524980339
2.27909230945117,1.9620031940525273,9.017598799736517
2.3783594411517095,2.0915247963005044,8.997206376233853
2.5394152976862587,2.2317568387343716,8.989948056004092
2.6640056772695897,2.4208085620155533,8.958840969305117
2.8372166927878784,2.609113045283766,8.964716752348256
2.986117390338688,2.773007688128321,8.921166830969689
3.134680444584394,2.9129906505578655,8.877271275294468
3.27108833984636,3.0405196127712584,8.796738484173785
3.3696801849366924,3.097060773752587,8.726574721952762
3.4682720300270247,3.166554094958713,8.705145395560134
3.5182432391823983,3.2489995763896364,8.683024800574195
3.567876805032668,3.282874456977569,8.62392133584614
3.617172727577834,3.3167493375655015,8.564817871118086
3.617510370882938,3.3381702179372823,8.432094301202454
3.6300031731717817,3.373539578551153,8.408591169029895
3.6056928552043024,3.374535898568445,8.43243993549911
3.581044893931719,3.376030378594383,8.480483102734196
3.5445794169805005,3.4011874590310094,8.49258030311713
3.5206067423181255,3.4248500594416975,8.456288701968324
3.4844789086720107,3.4853765004921944,8.432785569795765
3.448351075025896,3.534694341348155,8.45732560485829
3.4486887183309998,3.5957189424072977,8.494654108897063
3.4858294818924263,3.6069275426018343,8.507442577873308
3.5344501178273844,3.5820195421695313,8.519885412552899
3.546605276811124,3.5820195421695313,8.531982612935833
3.546605276811124,3.5688183019404103,8.471496611021157
3.4605062340096353,3.533947101335186,8.421034003709485
3.374069547903043,3.463457460111768,8.406517363249963
3.2754777028127107,3.4176267393163298,8.404443557470032
3.1890410167061183,3.35934201830474,8.402024117393443
3.1394074508558485,3.288105137068353,8.387853111230577
3.0897738850055783,3.228824096039471,8.361930538981431
3.076605796106527,3.1568399747901146,8.348450801411873
3.06377535051258,3.1092656939644154,8.371608299287779
3.0512825482237362,3.061442333134393,8.358474196014878
3.0259593003409457,3.014864372325986,8.405826094656652
3.013128854746998,2.9563305713100734,8.477026759767643
2.9628200022865205,2.8499734094641385,8.51089892083986
2.9746375179651565,2.79094144843958,8.582445220247505
2.9246663088097824,2.709243207021625,8.652954616765184
2.886850258638148,2.639500805811176,8.72380964757952
2.8375543360929822,2.6053768452189203,8.770815911924638
2.7882584135478163,2.5832087248341704,8.806070610183479
2.763610452275233,2.5602933644364514,8.841670942738974
2.7018217274412235,2.538374324056025,8.876580006701158
2.690004211762588,2.563780484496974,8.925314442529553
2.6528634482011615,2.541114204103578,8.960914775085048
2.6528634482011615,2.541612364112224,8.98510917585092
2.6282154869285783,2.5428577641338395,9.02105514270307
2.665018607184901,2.5428577641338395,9.069789578531465
2.6775114094737447,2.5677657645661425,9.130966849039451
2.690004211762588,2.5921756049897997,9.155852518398632
2.714652173035171,2.616585445413457,9.204932588523683
2.7271449753240145,2.6282922056166393,9.205278222820338
2.7764408978691804,2.662665246213218,9.182466359241088
2.813244018125503,2.64971308598842,9.17071479315481
2.8622022973655654,2.6604235261743105,9.171751696044774
2.886850258638148,2.6833388865720296,9.13615136348928
2.9114982199107313,2.693800246753597,9.088108196254195
2.9239910221995746,2.692305766727659,9.027967828636175
2.9607941424558972,2.703265286917872,9.01656189684655
3.0347380262736463,2.737140167505805,8.981652832884366
3.0593859875462295,2.7598064478992006,8.94605250032887
3.09686439441276,2.8188384089237593,8.935683471429211
3.0972020377178637,2.854705929546276,8.924277539639588
3.0489190450880095,2.891320690181762,8.887985938490782
3.061411847376853,2.9261918907869866,8.852385605935288
3.0367638861042696,2.9144851305838038,8.839597136959041
3.0371015294093735,2.9266900507956324,8.839942771255696
3.0124535681367908,2.91498329059245,8.827154302279451
3.000636052458155,2.9513489712236125,8.827845570872762
3.000298409153051,2.9391440510117843,8.827499936576107
3.000298409153051,2.938894971007461,8.815402736193171
3.013128854746998,2.98646925183316,8.792245238317266
2.9763257344906755,2.9740152516170086,8.731067967809281
2.9273674552506135,2.9869674118418064,8.71862513312969
2.8662540170268116,2.9757588116472697,8.693393829473854
2.8534235714328644,2.9279354508172477,8.692356926583887
2.828437966855178,2.892317010199054,8.679222823310987
2.877058602790136,2.855204089554922,8.679222823310987
2.9010312774525113,2.8188384089237593,8.690974389397267
2.901368920757615,2.830794249131265,8.690974389397267
2.926016882030198,2.8671599297624275,8.740400093818973
2.901368920757615,2.8439954893603856,8.751806025608598
2.9010312774525113,2.820581968954021,8.787751992460748
2.912848793131147,2.7844653683271807,8.799503558547027
2.961807072371209,2.7590592078862315,8.787406358164093
3.022245223984803,2.709243207021625,8.763211957398223
3.14480974373751,2.69404932675792,8.752497294201909
3.2305711432338953,2.692056686723336,8.741782631005595
3.2430639455227386,2.7154702071297008,8.730031064919315
3.267374263490218,2.714473887112409,8.7061822984501
3.2545438178962702,2.655192846083527,8.729339796326004
3.266361333574906,2.632526565690131,8.813674564709894
3.241713372302323,2.6210688854912716,8.825080496499519
3.266361333574906,2.6332738057031,8.862063366241635
3.241375728997219,2.5984026050978755,8.897318064500475
3.2292205700134797,2.6118529253313194,8.94605250032887
3.1802622907734173,2.6128492453486114,8.94536123173556
3.167769488484574,2.5896848049465695,8.980961564291055
3.1309663682282514,2.579721604773648,9.04075629761242
3.0813328023779816,2.545846724185716,9.08776256195754
3.093150318056617,2.4977742833513705,9.111265694130099
3.0435167522063473,2.438742322326812,9.109537522646823
2.981390384067234,2.3682526811033937,9.119560917249826
2.9196016592332246,2.3221728803036323,9.14202714653242
2.821347457447996,2.2758439994995485,9.115758939986618
2.7602340192241943,2.301001079936175,9.103316105307028
2.686627778711549,2.2778366395341325,9.053199132292011
2.6255143404877477,2.2785838795471016,9.02831346293283
2.6012040225202684,2.2895433997373154,8.943287425955628
2.6012040225202684,2.301001079936175,8.907341459103478
2.576893704552789,2.289294319732992,8.894552990127233
2.589048863536529,2.301001079936175,8.894898624423888
2.638344786081695,2.3241655203382168,8.908378361993444
2.6748102630329136,2.311462440117742,8.92047556237638
2.7484165035455588,2.310964280109096,8.98199846718102
2.8095299417693607,2.31046612010045,9.031424171602728
2.870981023298266,2.334377800515461,9.093292710704024
2.9442496205058073,2.3092207200788346,9.117832745766549
3.0539836946645673,2.2833163996292396,9.155506884101976
3.102604330599526,2.2589065592055824,9.203895685633716
3.15088732322938,2.186175197943257,9.227744452102932
3.1751976411968594,2.186175197943257,9.252284487165458
3.1748599978917555,2.151303997338032,9.312079220486822
3.162367195602912,2.128388636940313,9.359776753425253
3.1252264320414853,2.08131251612326,9.370491416621567
3.1370439477201213,2.04519591549642,9.382242982707847
3.1363686611099135,1.997870714675044,9.417497680966687
3.099227897548487,1.9629995140698195,9.428557978459656
3.0867350952596433,1.950794593857991,9.40401794339713
3.0863974519545394,1.91293443320089,9.318646272123273
3.0863974519545394,1.9007295129890613,9.306203437443683
3.025284013730738,1.9014767530020305,9.269220567701566
2.964170575506936,1.9258865934256877,9.20804329719358
2.915549939571978,1.949798273840699,9.147557295278904
2.8429566289746444,2.0235259551203164,9.14790292957556
2.819321597617373,2.0845505561794595,9.160691398551807
2.7710386049875186,2.156285597424493,9.08845383055085
2.7720515349028303,2.2384819988510936,8.993404398970645
2.760571662529298,2.309718880087481,8.933955299945936
2.761246949139506,2.3824502413498063,8.959532237898427
2.7744150380385575,2.4424785223916574,8.972666341171328
2.8362037628725667,2.5127190836107522,8.950891380482044
2.9469507669466384,2.545846724185716,8.928770785496106
3.0208946507643875,2.5914283649768306,8.894207355830577
3.05769777102071,2.6033842051843363,8.931190225572694
3.10733133687098,2.6609216861829568,8.860335194758358
3.1694577050100934,2.717462847164285,8.741091362412284
3.2180783409450515,2.692056686723336,8.729339796326004
3.242388658912531,2.679602686507184,8.74143699670894
3.254881461201374,2.7035143669221955,8.742128265302249
3.3284877017140193,2.714224807108086,8.76770520325474
3.438897062482987,2.723689847272361,8.769433374738018
3.5614615822356948,2.732407647423667,8.734869945072488
3.6354054660534434,2.7393818875447122,8.566546042601363
3.6718709430046625,2.7129794070864706,8.481865639920816
3.622575020459496,2.6903131266930744,8.492925937413785
3.5118280163854245,2.632526565690131,8.490506497337199
3.4135738146001966,2.62256336551721,8.476681125470988
3.3396299307824475,2.576483564717449,8.487050154370646
3.2781788492535417,2.555311764349991,8.57034801986457
3.1434591705170947,2.5727473646526033,8.6899374865073
2.948301340167054,2.6375081657765915,8.70030651540696
2.72849554854443,2.70226896690058,8.674383943157812
2.374307721490463,2.7822236482882734,8.65848476551167
1.9471889405340586,2.909005370488697,8.49776481756696
1.6051562724638313,2.9727698515953933,8.27621323341092
1.4224912444026339,3.045750292862042,8.09337269048027
1.4596320079640603,3.106027653908216,8.155586863878222
1.6443228958558809,3.188971295347786,8.316998080416242
1.9144375399389826,3.2821272169646,8.479791834140885
2.147411420460658,3.3269616177427457,8.592814249147164
2.3672172120832817,3.2776437768867854,8.78844326105406
2.5373894378556354,3.1563418147814684,8.94605250032887
2.706211090407574,2.952345291240905,9.162419570035082
2.912848793131147,2.806135328703285,9.307931608926959
3.181275220688729,2.729667767376114,9.407128652067028
3.4014186556164567,2.713477567095117,9.446185327589076
3.560111009015279,2.6733756863991083,9.423719098306481
3.719478649024309,2.6801008465158302,9.341112501405867
3.8535230411505483,2.6160872854048107,9.293414968467436
3.9514395996306724,2.5998970851238137,9.198019902590577
4.01221539454937,2.5366307640257637,9.10089666523044
4.036525712516849,2.4980233633556934,9.003427793573648
4.109794309724391,2.494785323299494,8.919784293783069
4.196230995830983,2.550081084259207,8.764594494584843
4.295160484226419,2.6053768452189203,8.633944730449144
4.368766724739064,2.60039524513246,8.465620827978018
4.466345639914085,2.57249828464828,8.381631693890782
4.55210703941047,2.556806244375929,8.285545359420611
4.6496859545854905,2.5049976034767383,8.213653425716311
4.735109710776771,2.479093283027143,8.214344694309622
4.77157518772799,2.47884420302282,8.250981929755083
4.77157518772799,2.4808368430574044,8.34810516711522
4.7107993928092915,2.5191951637231513,8.396148334350304
4.6496859545854905,2.545099484172747,8.419997100819518
4.539614237121627,2.5351362839998255,8.394074528570373
4.404556915080075,2.5147117236453367,8.428292323939246
4.2816547520222645,2.469379162858545,8.413430049183068
4.18373819354214,2.472119042906098,8.448339113145254
4.134779914302078,2.486814763161157,8.520576681146208
4.049356158110797,2.5368798440300866,8.532328247232488
3.9514395996306724,2.5396197240776397,8.555485745108394
3.853860684455652,2.577479884734741,8.530600075749213
3.8173952075044335,2.578725284756356,8.554103207921772
3.768436928264371,2.5921756049897997,8.565854774008052
3.7562817692806316,2.61683452541778,8.590394809070578
3.7437889669917883,2.581714244808232,8.625649507329417
3.7319714513131523,2.6305339256555467,8.650880810985253
3.732309094618256,2.654943766079204,8.663323645664843
3.6958436176670375,2.6798517665115074,8.663323645664843
3.659040497410715,2.6925548467319818,8.662978011368189
3.610082218170653,2.69404932675792,8.674383943157812
3.548631136641747,2.67188120637317,8.697195806737062
3.5121656596905284,2.684335206589322,8.685098606354126
3.451052221466727,2.708994127017302,8.636018536229075
3.4024315855317684,2.733154887436636,8.58728410040068
3.3909517131582367,2.8038936086643775,8.503986234906755
3.3419934339181747,2.792685008469841,8.490852131633854
3.354148592901914,2.76877332805483,8.502603697720133
3.4145867445155083,2.706503326974072,8.465966462274674
3.499672857401685,2.6452296459106055,8.502603697720133
3.5358006910478,2.5847032048601086,8.526106829892694
3.6337172495279244,2.5827105648255246,8.53958656746225
3.694493044446622,2.546095804190039,8.588321003290645
3.7920719596216426,2.5199424037361204,8.589012271883956
3.8656782001342878,2.5423596041251932,8.590394809070578
3.9760875609032555,2.551077404276499,8.55583137940505
4.037200999127057,2.537378004038733,8.544425447615424
4.110807239639702,2.548337524228946,8.570002385567916
4.159765518879764,2.5358835240127946,8.606639621013375
4.233034116087306,2.53389088397821,8.595579323520406
4.257682077359889,2.5443522441597777,8.535438955902386
4.306977999905055,2.5665203645445276,8.500184257643546
4.257682077359889,2.5433559241424852,8.487050154370646
4.233371759392409,2.555560844354314,8.47495295398771
4.172258321168608,2.5682639245747887,8.437970084245594
4.184413480152347,2.556308084367283,8.45006728462853
4.1601031621848685,2.5685130045791116,8.425527249566004
4.1601031621848685,2.568014844570466,8.401332848800134
4.147610359896025,2.5441031641554543,8.388890014120543
4.134779914302078,2.4960307233211094,8.375755910847642
4.085483991756911,2.4611595227158847,8.386470574043956
4.036188069211746,2.4377460023095194,8.36123927038812
3.999722592260527,2.4382441623181657,8.33635360102894
3.913961192764142,2.439738642344104,8.311122297373103
3.7917343163165387,2.455181602612132,8.345685727038632
3.705972916820154,2.457672402655362,8.368843224914537
3.6573522808851955,2.494785323299494,8.368843224914537
3.6698450831740392,2.5311510039306566,8.394074528570373
3.6698450831740392,2.519444243727474,8.417923295039587
3.730620878092737,2.495781643316786,8.515046532399724
3.803889475300278,2.470375482875837,8.52783500137597
3.901130747170195,2.4093508818166938,8.5886666375873
3.9372585808163096,2.349322600774843,8.63636417052573
3.961231255478685,2.325660000364155,8.696850172440406
4.022007050397383,2.289045239728669,8.733487407885868
4.046317368364862,2.2768403195168405,8.757681808651737
4.0341622093811225,2.2897924797416382,8.793973409800543
3.98520393014106,2.2793311195600707,8.817476541973102
3.9480631665796335,2.2554194391450597,8.768050837551396
3.935908007595894,2.255917599153706,8.779802403637676
3.8994425306446754,2.2691188393828265,8.803996804403546
3.8501466080995095,2.258657479201259,8.827154302279451
3.8254986468269263,2.2464525589894304,8.79051706683399
3.7762027242817604,2.2237862785960347,8.801231730030304
3.702934127074219,2.2257789186306187,8.81263766181993
3.629327886561574,2.2160647984620208,8.847546725782113
3.5435664870651893,2.2292660386911414,8.810218221743341
3.4824530488413874,2.2310095987214025,8.821624153532966
3.4210019673124816,2.2207973185441583,8.844781651408871
3.348071013410044,2.258657479201259,8.844436017112216
3.3119431797639294,2.3074771600485735,8.844781651408871
3.2629849005238674,2.332385160480877,8.83233881672928
3.190391589926534,2.3934097615400196,8.796047215580474
3.1535884696702112,2.4068600817734636,8.820241616346346
3.093150318056617,2.456427002633747,8.83233881672928
3.068840000089138,2.480587763053081,8.80814441596341
3.1056431203454604,2.504250363463769,8.833375719619246
3.167094201874366,2.5035031234508,8.870358589361363
3.2042349654357927,2.5386234040603477,8.859643926165049
3.277841205948438,2.5488356842375923,8.860680829055013
3.3271371284936038,2.5839559648471395,8.862063366241635
3.3271371284936038,2.5964099650632915,8.88660340130416
3.3389546441722397,2.548337524228946,8.910106533476721
3.3882505667174057,2.571501964630988,8.923240636749622
3.4247160436686244,2.570754724618019,8.923586271046277
3.4372088459574677,2.59466640503303,8.936374740022522
3.474349609518894,2.618079925439395,8.949508843295424
3.4625320938402586,2.6417425258500833,8.913562876443274
3.450376934856519,2.6656542062650943,8.889368475677403
3.4014186556164567,2.6664014462780634,8.864482806318222
3.3527980196814986,2.70226896690058,8.803996804403546
3.31633254273028,2.7139757271037626,8.743165168192215
3.2677119067953218,2.7269278873285603,8.730722333512626
3.255219104506478,2.715221127125378,8.73037669921597
3.2427263022176347,2.7035143669221955,8.730031064919315
3.2677119067953218,2.726180647315591,8.69443073236382
3.279867065779061,2.7139757271037626,8.69443073236382
3.3170078293404877,2.7488469277089873,8.68337043487085
3.341655790613071,2.7837181283142116,8.648115736612011
3.3787965541744973,2.81809116891079,8.600763837970236
3.3791341974796008,2.8422519293301245,8.613206672649826
3.403782158752184,2.8420028493258016,8.625649507329417
3.452740437992246,2.8646691297191973,8.614589209836447
3.5020363605374123,2.8870863301082705,8.591777346257198
3.539177124098839,2.922455690722141,8.592814249147164
3.551669926387682,2.9334152109123544,8.556868282295014
3.5888106899491086,2.981238571742377,8.582445220247505
3.5888106899491086,2.9804913317294077,8.5461536190987
3.601303492237952,3.0044030121444187,8.558942088074946
3.6134586512216917,2.9929453319455592,8.595233689223752
3.6137962945267956,3.0053993321617107,8.619428089989622
3.6141339378318995,3.053720853000379,8.644659393645458
3.6144715811370034,3.0781306934240362,8.657102228325048
3.590161263169524,3.115492694072491,8.693739463770509
3.5536957862183054,3.128195774292966,8.693393829473854
3.5540334295234093,3.152107454707977,8.681987897684229
3.4929199912996074,3.153352854729592,8.680950994794264
3.480427189010764,3.154100094742561,8.693048195177198
3.456116871043285,3.1545982547512073,8.692702560880543
3.406820948498119,3.1192288941373367,8.66712562292805
3.3943281462092756,3.107273053929831,8.654682788248461
3.406145661887911,3.0584533730825165,8.641894319272215
3.4058080185828072,3.022087692451354,8.617008649913034
3.441935852228922,2.984227531794253,8.568274214084639
3.4662461701964014,2.959070451357627,8.544079813318769
3.502374003842516,2.9097526105016662,8.519539778256243
3.526684321809995,2.885342770078009,8.519194143959588
3.61244572130638,2.8823538100261326,8.472187879614468
3.6492488415627027,2.868903489792689,8.435896278465663
3.722517438770244,2.8666617697537817,8.412738780589757
3.771475718010306,2.853709609528984,8.425527249566004
3.820433997250368,2.8524642095073687,8.413775683479724
3.8447443152178473,2.839512049282571,8.38992691701051
3.8697299197955344,2.8743832498877957,8.366423784837949
3.8332644428443157,2.898793090311453,8.342229384072079
3.7599958456367744,2.9114961705319273,8.281052113564092
3.711037566396712,2.9239501707480793,8.256512078501567
3.66207928715665,2.9134888105665118,8.279669576377472
3.6495864848678066,2.9030274503849443,8.339809943995492
3.6374313258840667,2.9035256103935905,8.351907144378426
3.6252761669003273,2.9279354508172477,8.351907144378426
3.637093682578963,2.904771010415206,8.412393146293104
3.637093682578963,2.893064250212023,8.436241912762318
3.6246008802901195,2.8703979698186273,8.496382280380338
3.6239255936799117,2.823321849001574,8.543734179022113
3.623250307069704,2.776494808188844,8.603528912343478
3.5986023457971212,2.7657843680029535,8.651226445281909
3.623250307069704,2.777989288214782,8.688209315024025
3.6107575047808607,2.754077607799771,8.675420846047778
3.5986023457971212,2.754326687804094,8.675420846047778
3.573954384524538,2.7441144076268498,8.735215579369143
3.524658461979372,2.7334039674409594,8.746621511158768
3.500348144011893,2.7336530474452823,8.734178676479178
3.4878553417230496,2.7219462872421,8.733833042182523
3.451389864771831,2.746356127665757,8.709293007119998
3.4024315855317684,2.747352447683049,8.696504538143751
3.3173454726455915,2.7956739685217173,8.61147850116655
3.219428914165467,2.7974175285519784,8.585901563214058
3.145822673652822,2.7882015683920263,8.64535066223877
3.1336675146690824,2.7896960484179645,8.705836664153445
3.121512355685343,2.8141058888416217,8.717933864536379
3.2069361118766238,2.7891978884093187,8.767359568958085
3.219091270860363,2.7891978884093187,8.791553969723957
3.2680495501004256,2.7767438881931668,8.828536839466071
3.267374263490218,2.71621744714267,8.80295990151358
3.2791917791688534,2.6673977662953554,8.778074232154399
3.290334008237281,2.5966590450676144,8.86171773194498
3.277503562643334,2.5376270840430557,8.89697243020382
3.2531932446758547,2.5376270840430557,8.872432395141294
3.216052481114428,2.5147117236453367,8.883492692634263
3.2157148378093243,2.4920454432519406,8.95573026063522
3.227869996793064,2.492294523256264,8.979924661401089
3.228207640098168,2.5049976034767383,9.01656189684655
3.2403627990819075,2.516704363679921,9.016907531143206
3.252517958065647,2.5044994434680925,9.016907531143206
3.3143066828996566,2.538125244051702,8.969901266798086
3.326124198578292,2.5012614034118927,8.94536123173556
3.3629273188346147,2.5127190836107522,8.958149700711806
3.3504345165457714,2.488309243187095,8.921166830969689
3.362589675529511,2.4763534029795897,8.933264031352625
3.3500968732406675,2.4519435625559325,8.908378361993444
3.374407191208147,2.4392404823354576,8.896281161610508
3.3858870635816785,2.378714041284961,8.883492692634263
3.373394261292835,2.3543042008613035,8.858607023275082
3.348746300020252,2.319682080260402,8.893861721533922
3.3116055364588255,2.29651763985836,8.904922019026891
3.286619931881139,2.2621445992617817,8.952619551965322
3.2737894862871912,2.2153175584490516,9.012068650990031
3.310592606543514,2.2018672382156077,8.97612268413788
3.3342276379007854,2.1408426371564646,8.96298858086498
3.407158591803223,2.0803161961059677,9.023474582779656
3.4439617120595454,2.0793198760886757,9.012068650990031
3.480427189010764,2.065620475850909,8.963679849458291
3.480764832315868,2.076579996041122,8.915636682223205
3.4682720300270247,2.052668315626111,8.90284821324696
3.4682720300270247,2.0651223158422627,8.927388248309486
3.4929199912996074,2.088535836248628,8.928079516902796
3.481102475620972,2.1244033568711447,8.90423075043358
3.505750436893555,2.1246524368754676,8.940867985879041
3.420326680702274,2.1620144375239225,8.90423075043358
3.371030758157108,2.1388499971218806,8.89109664716068
3.3467204401896287,2.1395972371348497,8.90284821324696
3.2977621609495666,2.1405935571521417,8.90215694465365
3.2737894862871912,2.1891641579951333,8.890405378567369
3.2498168116248163,2.2250316786176496,8.854459411715219
3.225506493657337,2.24969059904563,8.866556612098154
3.176548214417275,2.264137239296366,8.926696979716175
3.2140266212838053,2.3241655203382168,8.976813952731192
3.2633225438289712,2.358787640939118,8.954002089151942
3.3004633073903977,2.3941570015529887,8.967136192424844
3.3004633073903977,2.394655161561635,8.991330593190714
3.3251112686629805,2.4063619217648173,9.004119062166959
3.3254489119680843,2.4297754421711826,8.968173095314809
3.337941714256928,2.4666392828109913,9.02969600011945
3.362589675529511,2.4910491232346486,9.078776070244501
3.3750824778183546,2.503254043446477,9.103316105307028
3.3754201211234585,2.5386234040603477,9.067715772751532
3.3757577644285623,2.5737436846698953,9.020018239813103
3.3146443262047605,2.586944924899016,9.007229770836856
3.2660236902698023,2.6108566053140274,8.946398134625525
3.2542061745911663,2.645478725914929,8.8499661658587
3.2427263022176347,2.7052579269524566,8.826808667982796
3.2430639455227386,2.7294186873717905,8.827154302279451
3.254881461201374,2.7047597669438104,8.81471146759986
3.2795294224739573,2.715221127125378,8.754916734278495
3.3284877017140193,2.701023566878965,8.70687356704341
3.3399675740875514,2.6285412856209627,8.693739463770509
3.290671651542385,2.593670085015738,8.704454126966823
3.303164453831229,2.6048786852102745,8.668508160114673
3.3278124151038115,2.6290394456296085,8.70549102985679
3.3399675740875514,2.6290394456296085,8.730031064919315
3.3892634966327173,2.652203886031651,8.743165168192215
3.474687252823998,2.6382554057895606,8.744202071082182
3.560448652320383,2.624805085556117,8.769087740441362
3.6333796062228205,2.5998970851238137,8.806070610183479
3.694830687751726,2.6101093653010583,8.79501031269051
3.719478649024309,2.6203216454783025,8.723118378986209
3.7319714513131523,2.6193253254610105,8.686826777837403
3.6340548928330283,2.6330247256987773,8.661595474181567
3.5239831753691644,2.6459768859235746,8.5755325343144
3.499672857401685,2.6571854861181112,8.502603697720133
3.451052221466727,2.693800246753597,8.478409296954263
3.4024315855317684,2.731411327406375,8.490506497337199
3.3781212675642895,2.731411327406375,8.465966462274674
3.4027692288368723,2.7426199276009116,8.454560530485049
3.452402794687142,2.801900968629793,8.46838590235126
3.452402794687142,2.8031463686514084,8.540969104648871
3.4892059149434647,2.814853128854591,8.565854774008052
3.4770507559597252,2.8397611292868943,8.602492009453512
3.5013610739272045,2.8280543690837114,8.638783610602317
3.4767131126546214,2.806135328703285,8.722772744689554
3.4399099923982988,2.7954248885173945,8.746275876862112
3.390614069853133,2.771513208102383,8.696850172440406
3.341655790613071,2.784963528335827,8.708601738526687
3.3048526703567482,2.7747512481585828,8.756299271465117
3.219091270860363,2.7886997284006725,8.755262368575151
3.1829634372142483,2.824318169018866,8.694776366660475
3.1464979602630296,2.8489770894468465,8.68267916627754
3.13434280127929,2.8733869298705037,8.683024800574195
3.122862928905758,2.9214593707048486,8.67161886878457
3.1603413357722885,2.9799931717207615,8.637055439119042
3.197144456028611,2.991450851919621,8.649843908095287
3.2707506965412563,3.01436621231734,8.687518046430714
3.356849739342745,3.03653433270209,8.68924621791399
3.442273495534026,3.021838612447031,8.653645885358495
3.515879736046671,3.006893812187649,8.581753951654195
3.5638250853714215,2.9336642909166772,8.581062683060884
3.5631497987612137,2.862178329675967,8.616317381319725
3.5753049577449536,2.861182009658675,8.580025780170919
3.5999529190175363,2.8601856896413826,8.556177013701703
3.612783364611484,2.908258130475728,8.569311116974605
3.600965848932848,2.9680373315132558,8.5461536190987
3.576993174270473,3.016109772347601,8.51020765224655
3.5287101816406183,3.076636213398098,8.4742616853944
3.4797519024005563,3.077383453411067,8.461473216418154
3.4186384641767544,3.0659257732122076,8.412047511996448
3.4186384641767544,3.0651785331992385,8.375755910847642
3.393652859599068,3.0176042523735394,8.362621807574742
3.356849739342745,3.006893812187649,8.398222140130237
3.3561744527325374,2.9715244515737784,8.433822472685732
3.3923022863786523,2.9109980105232816,8.445228404475355
3.4405852790085065,2.8504715694727847,8.481174371327505
3.4520651513820386,2.7784874482234283,8.50433186920341
3.4757001827393097,2.718459167181577,8.539932201758905
3.499335214096581,2.6210688854912716,8.501912429126824
3.5229702454538527,2.5366307640257637,8.512972726619791
3.509802156554801,2.453188962577548,8.535438955902386
3.447675788415688,2.394904241565958,8.545807984802044
3.447675788415688,2.3831974813627754,8.56965675127126
3.398042222565418,2.3381140005803065,8.66505181714812
3.373731904597939,2.364267401034225,8.749732219828665
3.3365911410365126,2.342099280649475,8.797429752767096
3.3609014590039914,2.3306416004506154,8.857915754681772
3.3122808230690333,2.3443410006883822,8.881764521150986
3.2147019078940127,2.3841938013800674,8.965753655238222
3.1664189152641584,2.471371802893129,9.075665361574604
3.1792493608581056,2.532645483956595,9.149631101058837
3.1792493608581056,2.534139963982533,9.222214303356447
3.1789117175530017,2.4990196833729854,9.282009036677813
3.17789878763769,2.4272846421279524,9.292723699874127
3.165068342043743,2.378714041284961,9.255395195835355
3.1529131830600035,2.3772195612590226,9.158617592771874
3.1164477061087847,2.3769704812546997,9.097440322263887
3.055334267884983,2.3891754014665283,9.0362630517559
3.0560095544951906,2.4469619624694716,8.916327950816516
3.093487961361721,2.493290843273556,8.869321686471396
3.1667565585692623,2.4908000432303257,8.834066988212557
3.276828276033126,2.4763534029795897,8.835103891102522
3.4240407570584166,2.4960307233211094,8.789134529647368
3.5587604357948637,2.4678846828326066,8.730031064919315
3.6688321532587276,2.464148482767761,8.67092760019126
3.7792415140276954,2.460910442711562,8.63636417052573
3.8406925955566007,2.4825804030876655,8.576915071501022
3.8771580725078194,2.4688810028498986,8.540969104648871
3.926116351747882,2.4678846828326066,8.54166037324218
3.9625818286991006,2.431020842192798,8.541314738945527
4.0000602355656305,2.477100642992559,8.482211274217471
3.987905076581891,2.4888074031957412,8.458016873451601
3.9264539950529858,2.4903018832216794,8.45732560485829
3.829212723183069,2.5279129638744573,8.420342735116174
3.7559441259755277,2.57822712474771,8.45663433626498
3.658365210800507,2.592673764998446,8.467348999461294
3.5726038113041225,2.6068713252448585,8.466657730867983
3.5239831753691644,2.6203216454783025,8.490160863040543
3.475024896129102,2.6337719657117464,8.501912429126824
3.450714578161623,2.6591781261526957,8.550646864955219
3.4135738146001966,2.625303245564763,8.621847530066209
3.377108337648978,2.6509584860100355,8.658139131215014
3.42606661688904,2.64971308598842,8.658830399808325
3.364615535360134,2.640248045824145,8.718279498833034
3.3038397404414366,2.6791045264985383,8.790862701130646
3.2174030543348437,2.6340210457160693,8.837177696882454
3.1559519728059384,2.6118529253313194,8.860335194758358
3.119148852549616,2.601142485145429,8.883492692634263
3.0941632479719288,2.577978044743387,8.906995824806822
3.0570224844105023,2.542608684129516,8.893861721533922
3.044867325426763,2.5309019239263337,8.893516087237266
3.0570224844105023,2.53140008393498,8.929807688386072
3.093825604666825,2.5309019239263337,8.954693357745253
3.142108597296679,2.470126402871514,8.978542124214467
3.2025467489102732,2.4076073217864327,8.917710488003136
3.28763286179645,2.357791320921826,8.930153322682727
3.275140059507607,2.3099679600918037,8.929116419792761
3.225844136962441,2.2990084399015904,8.928079516902796
3.1772235010274827,2.311213360113419,8.8793450810744
3.1275899351772125,2.2758439994995485,8.853768143121908
3.1036172605148376,2.3007519999318515,8.865865343504844
3.0303486633072962,2.3132060001480035,8.804688072996857
2.981390384067234,2.3137041601566493,8.76770520325474
2.956404779489547,2.2773384795254867,8.73037669921597
2.9685599384732866,2.2778366395341325,8.766668300364776
2.98105274076213,2.2912869597675765,8.852039971638632
3.0178558610184525,2.301997399953467,8.828536839466071
3.1036172605148376,2.3124587601350344,8.854113777418563
3.165068342043743,2.3361213605457225,8.903885116136925
3.2268570668777525,2.395651481578927,8.954002089151942
3.251842671455439,2.419065001985292,8.954693357745253
3.2889834350168656,2.4783460430141737,8.95642152922853
3.3139690395945527,2.5149608036496596,9.01794443403317
3.3267994851885,2.5625350844753587,9.0068841365402
3.3642778920550303,2.6457278059192517,8.996860741937198
3.4014186556164567,2.6808480865287994,8.997897644827164
3.4145867445155083,2.7650371279899844,9.011723016693375
3.415262031125716,2.8118641688027144,8.952273917668666
3.4159373177359234,2.883599210047748,8.929116419792761
3.428430120024767,2.907261810458436,8.929807688386072
3.428767763329871,2.9199648906789104,8.966444923831533
3.416950247651235,2.9680373315132558,8.955038992041908
3.429105406634975,2.966791931491641,8.894552990127233
3.392639929683756,2.9794950117121153,8.894207355830577
3.355161522817226,2.9077599704670822,8.86828478358143
3.29371044128832,2.884844610069363,8.854805046011874
3.219428914165467,2.825812649044804,8.816439639083137
3.157640189331458,2.755323007821386,8.82646303368614
3.071203503224865,2.6977855268227655,8.860680829055013
2.997259619407116,2.662914326217541,8.834758256805868
2.9601188558456895,2.6160872854048107,8.845472920002182
2.910147646690316,2.545846724185716,8.89178791575399
2.8851620421126287,2.486814763161157,8.914599779333239
2.8240486038888273,2.5117227635934603,8.890059744270713
2.7875831269376086,2.5368798440300866,8.90215694465365
2.7629351656650254,2.52567124383555,8.913562876443274
2.7632728089701293,2.5378761640473786,8.926005711122864
2.7879207702427125,2.5610406044494205,8.902502578950305
2.8004135725315558,2.57249828464828,8.890751012864024
2.824386247193931,2.548088444224623,8.90284821324696
2.8854996854177326,2.534887203995502,8.915636682223205
2.959105925930378,2.533392723969564,8.916673585113172
3.044529682121659,2.5191951637231513,8.917364853706482
3.154263756280419,2.48133500306605,8.954693357745253
3.2400251557768036,2.4686319228455758,9.016216262549895
3.276828276033126,2.4912982032389714,8.992713130377334
3.3507721598508753,2.5132172436193985,8.969901266798086
3.3754201211234585,2.5366307640257637,8.958840969305117
3.436871202652364,2.5587988844105136,8.935683471429211
3.4250536869737283,2.5809670047952635,8.827154302279451
3.4132361712950927,2.615589125396165,8.74281953389556
3.351785089766187,2.6048786852102745,8.72968543062266
3.315657256120072,2.641244365841437,8.70549102985679
3.2916845814576967,2.688818646667136,8.645696296535423
3.2677119067953218,2.724188007281007,8.585555928917403
3.219091270860363,2.7493450877176335,8.585210294620747
3.1461603169579258,2.799410168586563,8.597307495003683
3.121849998990447,2.8235709290058972,8.585210294620747
3.0978773243280715,2.8723906098532113,8.585555928917403
3.0978773243280715,2.8855918500823323,8.646387565128734
3.110370126616915,2.8977967702941605,8.67092760019126
3.1107077699220187,2.9451219711155368,8.63567290193242
3.1107077699220187,2.946118291132829,8.696158903847095
3.0860598086494355,2.9349096909382926,8.70756483563672
3.0617494906819567,2.960315851379242,8.744202071082182
3.0742422929708,2.9725207715910704,8.768742106144707
3.099565540853591,3.0320508926242753,8.770124643331329
3.099227897548487,3.009384612230879,8.842362211332283
3.099903184158695,3.069661973277053,8.855496314605185
3.088085668480059,3.105280413895247,8.819550347753035
3.0759305094963194,3.129441174314581,8.807798781666754
3.05162019152884,3.129441174314581,8.78325874660423
3.0755928661912155,3.104533173882278,8.75906434583836
3.087748025174955,3.0788779334370053,8.686135509244092
3.063100063902372,3.0539699330047023,8.612515404056516
3.0377768160195813,2.994190731967174,8.599035666486959
3.0009736957632587,2.983231211776961,8.610441598276584
3.012791211441894,2.947363691154444,8.6342903647458
3.0617494906819567,2.946367371137152,8.647078833722045
3.110370126616915,2.8982949303028067,8.707219201340065
3.1714835648407167,2.9102507705103124,8.769087740441362
3.183638723824456,2.8975476902898376,8.756644905761771
3.18397636712956,2.9097526105016662,8.756990540058426
3.1829634372142483,2.838266649260956,8.791899604020612
3.170132991620301,2.79094144843958,8.815057101896516
3.170132991620301,2.778985608232074,8.827154302279451
3.20659846857152,2.755073927817063,8.875543103811191
3.230908786538999,2.767777008037538,8.936720374319178
3.255556747811582,2.7555720878257093,8.960914775085048
3.2440768754380502,2.8273071290707423,8.925660076826208
3.2076113984868315,2.852713289511692,8.949854477592078
3.1714835648407167,2.9261918907869866,8.98718298163085
3.0867350952596433,3.0113772522654636,8.939139814395764
3.0016489823734664,3.060944173125747,8.914599779333239
2.8804350358411748,3.1705393750278814,8.84201657703563
2.8199968842275807,3.244267056307499,8.854805046011874
2.783869050581466,3.30429533734935,8.806761878776788
2.796699496175413,3.35112237816208,8.759409980135015
2.93141917491186,3.3371738979199903,8.809526953150032
3.1630424822131196,3.260457256588496,8.847892360078768
3.371030758157108,3.243270736290207,8.826117399389485
3.4689473166372324,3.2283259360308247,8.790862701130646
3.420326680702274,3.2656879366792797,8.80295990151358
3.322072478917046,3.244267056307499,8.825426130796174
3.2599461107779324,3.1491184946561006,8.798812289953718
3.1724964947560284,2.9939416519628512,8.758373077245048
3.0728917197503844,2.8397611292868943,8.742128265302249
3.0100900650010636,2.708495967008656,8.714477521569826
2.984091530508065,2.5650258845185894,8.72380964757952
2.958768282625274,2.48133500306605,8.709984275713307
2.9942208296611814,2.3729852011855312,8.744547705378837
3.066814140258515,2.2995065999102366,8.756644905761771
3.164055412128431,2.2242844386046805,8.720353304612967
3.2238182771318176,2.1032315565036868,8.743165168192215
3.272101269761672,2.019291595046825,8.802614267216926
3.271425983151464,1.9712191542124797,8.81402019900655
3.2464403785737774,1.935849793598609,8.812983296116585
3.2339475762849337,1.9009785929933845,8.860680829055013
3.209299615012351,1.9029712330279687,8.93291839705597
3.1849892970448717,1.9161724732570895,8.969209998204775
3.1242135021261737,1.9657393941173729,8.969209998204775
3.06377535051258,2.0397161554013135,9.005847233650236
2.9786892376264027,2.089033996257274,8.95711279782184
2.8696304500778504,2.187171517960549,8.933264031352625
2.7848819804967775,2.272855039447672,8.90941526488341
2.6994582243054968,2.3231692003209248,8.933264031352625
2.6754855496431214,2.3605312009693793,8.969901266798086
2.651175231675642,2.3844428813843908,8.93360966564928
2.7001335109157045,2.3829484013584525,8.910106533476721
2.6997958676106006,2.3473299607402587,8.93360966564928
2.6751479063380175,2.3366195205543683,8.981652832884366
2.662655104049174,2.326158160372801,9.041793200502386
2.6504999450654343,2.3388612405932756,9.065987601268256
2.6754855496431214,2.3759741612374077,9.151704906838768
2.6994582243054968,2.3530588008396887,9.236385309519314
2.712288669899444,2.401380321678357,9.26161661317515
2.725119115493391,2.4611595227158847,9.262999150361772
2.7622598790548176,2.485320283135219,9.312424854783478
2.7497670767659743,2.4614086027202076,9.311733586190167
2.7987253560060363,2.460910442711562,9.336619255549348
2.8112181582948796,2.471371802893129,9.276478887931328
2.835528476262359,2.4589178026769773,9.276478887931328
2.835528476262359,2.4706245628801597,9.264727321845047
2.79906299931114,2.4810859230617273,9.14340968371904
2.8233733172786195,2.4673865228239604,9.082923681804365
2.848358921856306,2.5142135636366905,9.047668983545526
2.86085172414515,2.5129681636150756,8.999625816310441
2.8979924877065764,2.5592970444191594,8.952273917668666
2.9594435692354817,2.5814651648039093,8.917364853706482
3.0212322940694913,2.6150909653875187,8.870358589361363
3.0823457322932932,2.6128492453486114,8.823006690719588
3.0951761778872404,2.6347682857290384,8.726574721952762
3.181612863993833,2.6918076067190126,8.680605360497609
3.20659846857152,2.739132807540389,8.66954506300464
3.2683871934055295,2.785461688344473,8.647078833722045
3.354486236207018,2.8185893289194364,8.60041820367358
3.4402476357034026,2.8407574493041863,8.602146375156858
3.538164194183527,2.8273071290707423,8.651572079578564
3.5992776324073286,2.825812649044804,8.640166147788939
3.6732215162250776,2.8474826094209083,8.605257083826755
3.6850390319037136,2.822823688992928,8.59315988344382
3.661066357241338,2.8482298494338774,8.629451484592625
3.5756426010500575,2.8738850898791495,8.61666301561638
3.5145291628262556,2.9114961705319273,8.616317381319725
3.416612604346131,2.913239730562189,8.590740443367233
3.367654325106069,2.915232370596773,8.638783610602317
3.306540886882267,2.929180850838863,8.674383943157812
3.233272289674726,2.930924410869124,8.673347040267847
3.1714835648407167,2.910001690505989,8.756990540058426
3.134680444584394,2.900038490333068,8.828882473762727
3.0985526109382793,2.960814011387888,8.817130907676448
3.0377768160195813,3.009384612230879,8.768742106144707
2.9405355441496646,3.0472447728879803,8.743856436785526
2.879422105925863,3.061442333134393,8.791899604020612
2.793660706429478,3.074145413354868,8.718279498833034
2.7815055474457386,3.0856030935537273,8.681987897684229
2.805815865413218,3.061940493143039,8.73037669921597
2.7811679041406348,3.039274212749643,8.76563139747481
2.7929854198192703,3.014864372325986,8.76563139747481
2.841606055754229,2.978000531686177,8.777728597857745
2.8534235714328644,2.9299280908518317,8.789134529647368
2.901706564062719,2.8816065700131634,8.837177696882454
2.950664843302781,2.8811084100045177,8.874160566624571
2.987130320254,2.8569476495851833,8.910452167773375
3.047906115172698,2.831790569148557,8.923240636749622
3.0843715921239165,2.807131648720577,8.935337837132556
3.121174712380239,2.8058862486989615,8.911489070663341
3.1826257939091445,2.8043917686730233,8.912525973553308
3.2072737551817276,2.816098528876206,8.924968808232897
3.219091270860363,2.8043917686730233,8.949163208998769
3.244414518743154,2.8644200497148744,8.974740146951259
3.2687248367106334,2.863174649693259,8.93879418009911
3.318358402560903,2.8963022902682227,8.855496314605185
3.2822305689147884,2.9436274910895985,8.771161546221293
3.2818929256096845,2.9187194906572955,8.722081476096243
3.2704130532361524,2.977751451681854,8.650535176688598
3.2953986578138394,3.0243294124902613,8.603183278046822
3.3450322236641092,3.069911053281376,8.532328247232488
3.3825106305306396,3.139404374487502,8.437278815652284
3.4442993553646493,3.1722829350581425,8.353980950158359
3.444974641974857,3.2196081358795188,8.306283417219928
3.4331571262962215,3.2793873369170465,8.283125919344025
3.4216772539226894,3.3386683779459285,8.223331186022659
3.458818017484116,3.374037738559799,8.236810923592216
3.4591556607892198,3.4118978992169,8.322182594866073
3.483803622061803,3.4118978992169,8.358819830311534
3.471310819772959,3.3879862188018888,8.346031361335287
3.4338324129064293,3.3294524177859763,8.38094042529747
3.3835235604459513,3.211637575741182,8.450412918925185
3.272101269761672,3.1075221339341543,8.519885412552899
3.2099749016225587,3.0362852526977666,8.49327157171044
3.123200572210862,2.953341611258197,8.454214896188393
2.9878056068642076,2.8728887698618575,8.487395788667301
2.9138617230464585,2.84025928929554,8.57034801986457
2.8885384751636676,2.7812273282709814,8.59315988344382
2.973624588049845,2.731660407410698,8.617699918506345
3.021907580679699,2.6459768859235746,8.592814249147164
3.0340627396634385,2.6444824058976364,8.532328247232488
3.0951761778872404,2.6185780854480414,8.508479480763274
3.1441344571273024,2.6048786852102745,8.484630714294058
3.2427263022176347,2.6875732466455213,8.52403302411276
3.4270795468043516,2.744861647639819,8.600072569376925
3.746152470127515,2.808875208750838,8.55721391659167
4.102028513707002,2.8731378498661804,8.5755325343144
4.40928392135153,2.9647992914570565,8.714477521569826
4.545354173308392,3.106276733912539,8.731067967809281
4.545691816613496,3.128943014305935,8.67092760019126
4.287732331514134,3.0512300529571488,8.690283120803956
3.894715524373221,2.9391440510117843,8.646387565128734
3.5509946397774743,2.9010348103503603,8.749732219828665
3.4571298009585965,3.23530017615187,8.512627092323138
3.3237606954425654,3.3717960185208917,8.585901563214058
3.164730698738639,3.3869898987845968,8.559633356668256
3.14042038077116,3.3867408187802734,8.51089892083986
3.1890410167061183,3.361334658339324,8.498801720456925
3.175872927807067,3.2656879366792797,8.509170749356585
3.137381591025225,3.1117564940076456,8.590394809070578
3.1120583431424342,3.0522263729744408,8.589012271883956
3.036088599494062,2.8136077288329755,8.583827757434127
3.1080066234811876,2.6925548467319818,8.618736821396311
3.119148852549616,2.5976553650849064,8.702034686890237
2.994558472966285,2.422552122045815,8.830265010949349
3.068502356784034,2.4459656424521796,8.88003634966771
3.1272522918721086,2.2706133194087648,9.216684154609963
3.200183245774546,2.2080942383236835,9.168295353078221
3.235973436115557,2.0940155963437346,8.900428773170372
3.1981573859439227,1.9717173142211257,8.740400093818973
3.0627624205972683,1.9258865934256877,8.701343418296926
2.8919149082147064,1.9652412341087269,8.663323645664843
2.696081791254458,1.9697246741865415,8.6605585712916
2.6109956783682806,2.029752955228392,8.56378096822812
2.635643639640864,2.0397161554013135,8.47944619984423
2.7467282870200393,2.1219125568279145,8.518848509662932
2.882123252366694,2.179699117830858,8.558250819481636
3.016842931103141,2.1769592377833047,8.572076191347847
3.1015914006842142,2.1166818767371307,8.668853794411328
3.1370439477201213,2.0098265548825496,8.776346060671123
3.1606789790773924,1.9271319934473028,8.884183961227574
3.2457650919635697,1.8663564723924828,8.94466996314225
3.306540886882267,1.8429429519861178,9.054236035181976
3.318696045866007,1.8327306718088736,9.163110838628393
3.2572449643371013,1.8230165516402752,9.210462737270168
3.1961315261132994,1.8481736320769016,9.198019902590577
3.0863974519545394,1.87432703253082,9.17278859893474
2.9888185367795193,1.913432593209536,9.220486131873171
2.8909019782993948,1.9398350736677774,9.23154642936614
2.805478222108114,1.9791897143508166,9.29168679698416
2.7325472682056766,2.005841274813381,9.339384329922591
2.6224755507418127,2.033240075288915,9.386736228564365
2.5492069535342714,2.058895315734187,9.38639059426771
2.500586317599313,2.1089603966031167,9.43477939579945
2.464120840648094,2.134117477039743,9.446876596182387
2.4523033249694586,2.170981317679552,9.471762265541567
2.4161754913233437,2.2198009985268663,9.472107899838223
2.380047657677229,2.2681225193655346,9.436161932986073
2.380385300982333,2.303740959983728,9.412658800813512
2.319609506063635,2.3533078808440115,9.424756001196448
2.3324399516575824,2.4008821616697107,9.413695703703478
2.357425556235269,2.4477092024824407,9.378441005444639
2.3817358742027483,2.435504282270612,9.402981040507164
2.418201351153967,2.410596281838309,9.390883840124228
2.4553421147153935,2.4218048820328457,9.39157510871754
2.49248287827682,2.4681337628369295,9.34456884437242
2.5542716031108297,2.5030049634421543,9.358048581941976
2.6400330026072143,2.539121564068994,9.468997191168324
2.7274826186291183,2.6686431663169707,9.436161932986073
2.802101789057075,2.772260448115352,9.281663402381158
2.8395801959236056,2.8407574493041863,9.138225169269212
2.840593125838917,2.923701090743756,9.079121704541157
2.8048029354979063,2.994190731967174,8.94674376892218
2.7078993069330934,3.0656766932078847,8.80157736432696
2.5978275894692295,3.0788779334370053,8.727611624842728
2.4877558720053656,3.0930754936834184,8.71413188727317
2.3898393135252416,3.107273053929831,8.713094984383206
2.3533738365740224,3.1082693739471234,8.71274935008655
2.3162330730125964,3.097558933761233,8.73625248225911
2.352698549963815,3.060944173125747,8.760101248728324
2.4259671471713564,3.035787092689121,8.784986918087505
2.498898101073794,3.0103809322481716,8.797775387063751
2.596477016248814,2.960564931383565,8.834412622509213
2.682238415745199,2.9595686113662727,8.883838326930919
2.779817330920219,2.9341624509253235,8.921166830969689
2.8652410871115004,2.9202139706832337,8.922203733859655
2.926016882030198,2.882602890030456,8.922203733859655
2.999623122542843,2.8686544097883657,8.911143436366686
3.09686439441276,2.8175930089021444,8.863100269131602
3.1333298713639786,2.7802310082536894,8.838560234069076
3.1697953483151973,2.7428690076052344,8.814365833303205
3.1937680229775727,2.7179610071729314,8.80226863292027
3.2184159842501554,2.7052579269524566,8.790171432537335
3.242388658912531,2.656438246105142,8.789480163944024
3.290671651542385,2.619076245456687,8.77738296356109
3.2781788492535417,2.571751044635311,8.800540461436993
3.302151523915917,2.522931363787997,8.788097626757404
3.277503562643334,2.5353853640041484,8.775654792077813
3.2531932446758547,2.523927683805289,8.775309157781157
3.216052481114428,2.5132172436193985,8.810909490336652
3.1795870041632095,2.526418483848519,8.822661056422932
3.118473565939408,2.540117884086286,8.834066988212557
3.0455426120369706,2.577230804730418,8.809526953150032
2.9597812125405856,2.578974364760679,8.79639284987713
2.8746950996544087,2.6414934458457604,8.820587250643001
2.8260744637194506,2.678606366489892,8.820587250643001
2.7899466300733358,2.7276751273415294,8.820932884939655
2.7784667576998037,2.800157408599532,8.834066988212557
2.8037900055825946,2.8721415298488884,8.847892360078768
2.840930769144021,2.9189685706616184,8.837177696882454
2.841268412449125,2.9545870112798123,8.813674564709894
2.8662540170268116,3.0031576121228034,8.863100269131602
2.8787468193156553,3.0273183725421378,8.887985938490782
2.8790844626207592,3.0631858931646545,8.876580006701158
2.8915772649096025,3.075639893380806,8.913217242146619
2.8665916603319155,3.0407686927755813,8.948471940405458
2.854098858043072,3.0176042523735394,8.984417907257608
2.890226691689187,2.968784571526225,8.983726638664297
2.926354525335302,2.907510890462759,8.971283803984706
2.9503271999976772,2.847233529416585,8.982689735774331
2.9621447156763128,2.8106187687810995,8.969901266798086
2.9499895566925733,2.810369688776776,8.945706866032216
2.912848793131147,2.7877034083833805,8.96886436390812
2.8757080295697204,2.7518358877608637,8.93153585986935
2.8392425526185017,2.764538967981338,8.919093025189758
2.802777075667283,2.7882015683920263,8.858261388978427
2.7295084784597416,2.8131095688243297,8.821624153532966
2.6559022379470965,2.814853128854591,8.820587250643001
2.582971284044659,2.840010209291217,8.795701581283819
2.5586609660771797,2.8517169694943996,8.747312779752079
2.5711537683660235,2.8875844901169163,8.74800404834539
2.6197744043009816,2.8507206494771076,8.77219844911126
2.7055358037973662,2.8497243294598156,8.821969787829621
2.7912972032937513,2.847233529416585,8.786715089570782
2.876720959485032,2.82132920896699,8.799503558547027
2.93749675440373,2.7969193685433327,8.848237994375424
2.93749675440373,2.797666608556302,8.896626795907164
2.912848793131147,2.775498488171552,8.95642152922853
2.8760456728748243,2.777242048201813,9.004464696463614
2.8882008318585637,2.7650371279899844,9.004464696463614
2.9003559908423036,2.7642898879770152,8.99236749608068
2.912511149826043,2.763791727968369,8.968518729611464
2.9003559908423036,2.7632935679597233,8.931881494166003
2.8885384751636676,2.7986629285735938,8.883838326930919
2.827425036939866,2.8108678487854224,8.823006690719588
2.742338924053689,2.859687529632737,8.75007785412532
2.6937182881187307,2.8965513702725456,8.737635019445731
2.6694079701512514,2.909005370488697,8.737635019445731
2.706211090407574,2.908009050471405,8.726229087656106
2.8041276488876985,2.8928151702077,8.678877189014331
2.8892137617738753,2.855204089554922,8.691320023693923
2.9135240797413546,2.831292409139911,8.727611624842728
2.925679238725094,2.8185893289194364,8.715514424459792
2.92534159541999,2.7946776485044253,8.715168790163137
2.9621447156763128,2.8066334887119306,8.764248860288188
3.035413312883854,2.794179488495779,8.825426130796174
3.121174712380239,2.79343224848281,8.887294669897472
3.20659846857152,2.7675279280332146,8.900083138873716
3.2427263022176347,2.7204518072161616,8.996515107640542
3.205585538656208,2.6741229264120774,9.043521371985662
3.131641654838459,2.6407462058327913,9.090182002034126
3.05769777102071,2.6068713252448585,9.112993865613376
2.983416243897857,2.548586604233269,9.123017260216379
2.9466131236415345,2.5266675638528424,9.182466359241088
2.934120321352691,2.5030049634421543,9.193872291030713
2.9216275190638474,2.5037522034551234,9.218066691796583
2.884486755502421,2.4823313230833426,9.3138073919701
2.79906299931114,2.496777963334078,9.337310524142659
2.7133015998147556,2.510477363571845,9.312079220486822
2.615385041334631,2.500016003390278,9.274059447854741
2.541441157516882,2.453936202590517,9.296525677137335
2.4428493124265502,2.4071091617777864,9.245717435529007
2.4303565101377065,2.3822011613454834,9.184885799317676
2.4425116691214463,2.356795000904534,9.124054163106345
2.4418363825112386,2.29651763985836,9.11057442553679
2.4658090571736135,2.235493038799217,9.085688756177607
2.464458483953198,2.125897836897083,9.011031748100065
2.4880935153104695,2.041459715431575,9.022092045593034
2.498898101073794,1.9099454731490135,9.080504241727779
2.4610820509021596,1.8160423115192303,9.150668003948802
2.4718866366654835,1.7251281099413234,9.439618275952625
2.7170156761708983,1.7034581495652197,9.22497937772969
2.9003559908423036,1.6720740690205176,9.057346743851873
2.9239910221995746,1.6013353477927763,9.16553027870498
2.8861749720279404,1.4959745059641336,9.259888441691874
2.8976548444014725,1.4210014246629008,9.125436700292965
2.8115558015999835,1.398833304278151,9.124054163106345
2.7018217274412235,1.4399315049914512,9.256432098725321
2.64138357582763,1.5258641064828975,9.269220567701566
2.6423965057429415,1.622008988151588,9.270948739184844
2.667382110320628,1.6693341889729643,9.271985642074808
2.7055358037973662,1.7771858308448372,9.298599482917266
2.7193791793066255,1.9321135935337634,9.241224189672488
2.6724467598971864,2.112198436659316,9.1831576278344
2.588373576926321,2.2701151594001185,9.160691398551807
2.5289483552280387,2.4272846421279524,9.138570803565868
2.555284533026141,2.5692602445920807,9.056655475258564
2.6299037034540977,2.6753683264336927,9.03557178316259
2.7041852305769507,2.745608887652788,9.025548388559587
2.7902842733784397,2.778736528227751,8.979233392807778
2.8888761184687715,2.823321849001574,8.920821196673035
2.938172041013938,2.869152569797012,8.86171773194498
2.999960765847947,2.891818850190408,8.863100269131602
3.061074204071749,2.9025292903762985,8.864137172021566
3.1957938828081955,2.898793090311453,8.829573742356038
3.29371044128832,2.884097370056394,8.806416244480134
3.354486236207018,2.84598812939497,8.782567478010918
3.3787965541744973,2.82132920896699,8.770124643331329
3.4155996744308195,2.8185893289194364,8.674038308861157
3.3666413951907574,2.81809116891079,8.588321003290645
3.354823879512122,2.8417537693214783,8.552375036438495
3.3062032435771633,2.878617609961287,8.54027783605556
3.2697377666259446,2.902280210371975,8.479791834140885
3.294385727898528,2.9266900507956324,8.528871904265936
3.3308512048497465,2.915481450601096,8.613897941243136
3.3916269997684445,2.8791157699699332,8.662632377071533
3.4277548334145593,2.8175930089021444,8.637746707712353
3.4399099923982988,2.7939304084914562,8.673692674564503
3.4277548334145593,2.8193365689324055,8.722427110392898
3.354486236207018,2.8330359691701723,8.721735841799587
3.2815552823045806,2.869650729805658,8.673001405971192
3.208624328402143,2.9197158106745875,8.68475297205747
3.073904649665696,2.922704770726464,8.683024800574195
2.975988091185572,2.948110931167413,8.633599096152489
2.915212296266874,2.960814011387888,8.596961860707028
2.8662540170268116,2.962059411409503,8.596270592113717
2.816620451176542,2.9271882108042786,8.60698525531003
2.8041276488876985,2.891071610177439,8.581753951654195
2.828437966855178,2.8656654497364897,8.545462350505389
2.8645658005012926,2.8178420889064673,8.593505517740475
2.876383316179928,2.7949267285087482,8.66574308574143
2.93749675440373,2.770267808080768,8.714823155866481
3.0107653516112713,2.769520568067799,8.764248860288188
3.071541146529969,2.732905807432313,8.800540461436993
3.1083442667862915,2.745608887652788,8.886257767007505
3.132654584753771,2.7221953672464227,8.946398134625525
3.14480974373751,2.7221953672464227,8.958840969305117
3.1691200617049895,2.7104886070432403,9.007229770836856
3.15696490272125,2.710986767051886,9.019326971219792
3.1329922280588747,2.759308287890555,9.007575405133512
3.035750956188958,2.8210801289626666,8.971283803984706
2.926354525335302,2.907261810458436,8.947089403218836
2.8655787304166043,2.9575759713316887,8.995478204750578
2.792647776514167,3.0063956521790027,8.94674376892218
2.829788540075593,3.0405196127712584,8.887640304194127
2.8176333810918535,3.0402705327669355,8.863100269131602
2.805478222108114,3.052475452978764,8.863100269131602
2.85477414465328,3.0507318929485026,8.827499936576107
2.8787468193156553,3.0253257325075533,8.779111135044365
2.903057137283134,3.000666812079573,8.77876550074771
2.9520154165231967,2.9874655718504526,8.77945676934102
3.013466498052102,2.9976778520276968,8.756299271465117
3.0377768160195813,2.9969306120147277,8.744547705378837
3.135355731194602,2.9707772115608093,8.757336174355082
3.1721588514509245,2.9575759713316887,8.733487407885868
3.2207794873858826,2.9194667306702646,8.685098606354126
3.2572449643371013,2.8940605702293154,8.660904205588256
3.3180207592557993,2.8449918093776776,8.673001405971192
3.342331077223278,2.844493649369032,8.685444240650781
3.403782158752184,2.8659145297408126,8.613897941243136
3.45307808129735,2.863174649693259,8.529908807155902
3.4402476357034026,2.81560036886756,8.540969104648871
3.3787965541744973,2.8056371686946386,8.57622380290771
3.3170078293404877,2.7578138078646166,8.514009629509758
3.2920222247628006,2.709492287025948,8.476681125470988
3.2180783409450515,2.676115566446662,8.523341755519452
3.2180783409450515,2.6773609664682767,8.595924957817061
3.1937680229775727,2.6791045264985383,8.656065325435083
3.2177406976399476,2.65544192608785,8.704454126966823
3.242051015607427,2.6437351658846677,8.753188562795218
3.2177406976399476,2.6449805659062826,8.789134529647368
3.1684447750947817,2.6220652055085636,8.787751992460748
3.118811209244512,2.5757363247044798,8.810563856039996
3.106318406955668,2.5520737242937916,8.821969787829621
3.0691776433942417,2.5054957634853845,8.856878851791805
2.9955714028815965,2.5072393235156456,8.856187583198496
2.983416243897857,2.532894563960918,8.929116419792761
2.97058579830391,2.485818443143865,8.9643711180516
3.019544077543972,2.4624049227375,9.049051520732148
3.067827070173826,2.402127561691326,9.097094687967232
3.1414333106864714,2.411343521851278,9.050088423622112
3.239349869166596,2.408852721808048,9.027276560042864
3.3004633073903977,2.419314081989615,9.02831346293283
3.337604070951824,2.442976682400303,9.053199132292011
3.313631396289449,2.4915472832432948,9.041793200502386
3.2653484036595946,2.5538172843240527,9.102624836713717
3.21706541102974,2.6150909653875187,9.102970471010373
3.181275220688729,2.700027246861673,9.104007373900338
3.1694577050100934,2.7366420074971587,9.116795842876584
3.1947809528928843,2.8330359691701723,9.167258450188257
3.195456239503092,2.881855650017487,9.204586954227027
3.2207794873858826,2.9510998912192896,9.084997487584298
3.18397636712956,2.938894971007461,9.035917417459245
3.0985526109382793,2.9887109718720675,9.023474582779656
3.025284013730738,3.001663132096865,8.974394512654605
2.989156180084623,3.0487392529139186,8.890059744270713
2.9770010211008833,3.060446013117101,8.853768143121908
2.8790844626207592,3.0387760527409973,8.864137172021566
2.8426189856695405,3.062936813160331,8.815402736193171
2.8915772649096025,3.046746612879334,8.65848476551167
3.049594331698217,2.9339133709210006,8.610441598276584
3.231584073149207,2.7979156885606247,8.62253879865952
3.4382217758727793,2.648965845975451,8.622884432956175
3.64553476520656,2.5470921242073308,8.5755325343144
3.75526883936532,2.495781643316786,8.53958656746225
3.7667487117388516,2.446463802460826,8.490506497337199
3.6924671846159987,2.364018321029902,8.48808705726061
3.6185233007982496,2.3293962004290005,8.4742616853944
3.6060304985094063,2.293528679806484,8.461473216418154
3.5692273782530837,2.2825691596162705,8.47287914820778
3.507438653419074,2.2476979590110457,8.471150976724502
3.4216772539226894,2.2242844386046805,8.39718523724027
3.360226172393784,2.213324918414467,8.371608299287779
3.2130136913684937,2.181193597856796,8.405480460359998
3.0536460513594634,2.1739702777314283,8.463547022198085
2.918588729317913,2.165501557584445,8.485667617184024
2.8210098141428923,2.180446357843827,8.520922315442863
2.748078860240455,2.267873439361211,8.60629398671672
2.6997958676106006,2.3311397604592616,8.715514424459792
2.663668033964486,2.381204841328191,8.776346060671123
2.6758231929482252,2.381703001336837,8.812983296116585
2.76158459244461,2.3924134415227276,8.85065743445201
2.7987253560060363,2.4290282021582135,8.924623173936242
2.847683635246099,2.441233122370042,8.997897644827164
2.884824398807525,2.4768515629882355,9.023474582779656
2.909472360080108,2.489056483200064,9.060111818225117
2.9216275190638474,2.4773497229968817,9.084306218990987
2.9216275190638474,2.477100642992559,9.072209018608051
2.8973172010963686,2.5132172436193985,9.048360252138837
2.8854996854177326,2.5488356842375923,9.012414285286686
2.825061533804139,2.609362125288089,8.9643711180516
2.7521305799017015,2.6457278059192517,8.891442281457335
2.6670444670155242,2.706503326974072,8.83095627954266
2.569803195145608,2.76877332805483,8.818513444863068
2.4968722412431705,2.806882568716254,8.842362211332283
2.472899566580795,2.8559513295678913,8.867247880691465
2.5097026868371177,2.8796139299785795,8.892133550050646
2.5708161250609196,2.8788666899656103,8.929462054089417
2.6072816020121383,2.8549550095505993,8.977850855621158
2.6559022379470965,2.8188384089237593,9.026239657152898
2.7170156761708983,2.79343224848281,9.026585291449553
2.7528058665119093,2.7204518072161616,9.025894022856242
2.777116184479388,2.708246887004333,9.050088423622112
2.813581661430607,2.683587966576353,9.062531258301703
2.8750327429595126,2.705756086961103,9.039373760425798
2.899680704232096,2.716466527146993,9.003773427870303
2.912173506520939,2.715719287134024,8.979579027104434
2.9243286655046785,2.70226896690058,8.919093025189758
2.899343060926992,2.677859126476923,8.870012955064707
2.862877583975773,2.678357286485569,8.845127285705527
2.838567266008294,2.6908112867017207,8.83303008532259
2.83822962270319,2.678108206481246,8.808490050260065
2.813581661430607,2.6651560462564485,8.723118378986209
2.8017641457519713,2.676862806459631,8.69892397822034
2.777116184479388,2.6654051262607714,8.686481143540748
2.7528058665119093,2.6776100464726,8.674038308861157
2.753143509817013,2.700774486874642,8.626340775922728
2.777116184479388,2.663910646234833,8.613897941243136
2.8260744637194506,2.6753683264336927,8.638783610602317
2.8507224249920333,2.6753683264336927,8.675420846047778
2.9243286655046785,2.6858296866152602,8.6768033832344
2.973624588049845,2.709243207021625,8.702034686890237
2.986117390338688,2.745608887652788,8.739017556632351
3.0111029949163752,2.793681328487133,8.764594494584843
2.9742998746600526,2.808127968737869,8.848929262968735
2.9503271999976772,2.87064704982295,8.94674376892218
2.8892137617738753,2.885093690073686,9.006538502243547
2.8895514050789792,2.9097526105016662,9.043175737689007
2.8652410871115004,2.9102507705103124,9.030732903009417
2.8524106415175527,2.8875844901169163,9.090873270627437
2.828100323550074,2.900536650341714,9.115067671393307
2.791634846598855,2.913986970575158,9.138916437862523
2.7551693696476365,2.938645891003138,9.126819237479587
2.681900772440095,2.962557571418149,9.041447566205731
2.5846595005701785,3.0123735722827556,9.01656189684655
2.4749254264114184,3.0736472533462216,8.943633060252283
2.401994472508981,3.099053413787171,8.918747390893103
2.365866638862866,3.1717847750494967,8.919784293783069
2.3422316075055947,3.2564719765193275,8.920821196673035
2.330414091826959,3.2928376571504905,8.921512465266344
2.34358218072601,3.3526168581880182,8.910452167773375
2.3807229442874367,3.3882352988062117,8.936029105725867
2.453653898189874,3.350375138149111,8.936374740022522
2.514767336413676,3.3371738979199903,8.936720374319178
2.5880359336212173,3.3232254176779,8.925660076826208
2.673797333117602,3.321730937651962,8.950891380482044
2.722755612357664,3.320983697638993,8.975777049841225
2.832827329821528,3.3184928975957626,8.977159587027847
2.8453201321103716,3.3177456575827935,8.953310820558631
2.857137647789007,3.2923394971418443,8.8924791843473
2.84430720219506,3.244267056307499,8.8793450810744
2.8314767566011123,3.1842387752656482,8.865865343504844
2.867604590247227,3.135170014414011,8.853422508825252
2.9165628694872896,3.109763853973061,8.841670942738974
2.9651835054222477,3.0726509333289296,8.853768143121908
2.915887582877082,3.0499846529355334,8.864828440614877
2.8912396216044987,3.0504828129441797,8.852385605935288
2.903394780588238,3.038277892732351,8.864137172021566
2.903057137283134,3.01436621231734,8.86379153772491
2.9027194939780308,2.990703611906652,8.887640304194127
2.890564334994291,2.9784986916948233,8.863100269131602
2.865916373721708,2.955085171288458,8.86240900053829
2.8041276488876985,2.9207121306918795,8.884875229820885
2.7791420443100114,2.861182009658675,8.883492692634263
2.7912972032937513,2.8728887698618575,8.871741126547983
2.8152698779561263,2.8235709290058972,8.835103891102522
2.7906219166835435,2.8121132488070377,8.846509822892147
2.741663637443481,2.812860488820007,8.821624153532966
2.7298461217648455,2.8365230892306945,8.785678186680816
2.692705358203419,2.801153728616824,8.772544083407915
2.7048605171871585,2.800904648612501,8.784641283790851
2.7045228738820546,2.77699296819749,8.784295649494196
2.7659739554109604,2.7879524883877034,8.809526953150032
2.8149322346510224,2.7750003281629056,8.809872587446687
2.862877583975773,2.7027671269092264,8.869667320768052
2.886850258638148,2.654694686074881,8.893516087237266
2.898667774316784,2.618329005443718,8.892824818643955
2.922302805674055,2.546095804190039,8.916327950816516
2.9216275190638474,2.486316603152511,8.927388248309486
2.95843063932017,2.4746098429493286,8.988219884520817
3.0435167522063473,2.4130870818815393,9.012414285286686
3.1039549038199414,2.351066160805104,8.987874250224161
3.1772235010274827,2.325660000364155,9.000662719200406
3.164055412128431,2.2531777191061524,8.974740146951259
3.1394074508558485,2.2295151186954643,8.961951677975014
3.077618726021839,2.1707322376752285,8.959877872195083
3.0404779624604124,2.148065957281833,8.983381004367642
3.028322803476673,2.1485641172904786,8.995132570453922
3.0043501288142975,2.196636558124824,8.959532237898427
2.992532613135662,2.233002238755987,8.971975072578017
2.9560671361844433,2.270364239404442,8.996515107640542
2.9442496205058073,2.3077262400528964,9.04524954346894
2.9202769458434323,2.356296840895888,9.04594081206225
2.896641914486161,2.4292772821625364,9.05907491533515
2.774752681343661,2.4920454432519406,9.05838364674184
2.738624847697546,2.5533191243154065,9.071172115718086
2.7761032545640765,2.611354765322673,9.012068650990031
2.825399177109243,2.6340210457160693,9.001008353497062
2.948301340167054,2.6676468462996787,9.015524993956584
2.9604564991507933,2.654943766079204,8.991330593190714
2.94796369686195,2.654445606070558,8.954693357745253
2.8865126153330443,2.607120405249182,8.916673585113172
2.849371851771618,2.572249204643957,8.939831082989075
2.8115558015999835,2.4898037232130332,8.97404887835795
2.810880514989776,2.4300245221755055,8.997206376233853
2.8952913412657453,2.308722560070189,9.032461074492693
2.992194969830558,2.211830438388529,9.116795842876584
3.1009161140740065,2.1017370764777485,9.152741809728735
3.173847067976444,2.0521701556174654,9.152741809728735
3.1613542656876,2.0285075552067773,9.164493375815013
3.039127389239997,2.043452355466159,9.163110838628393
2.9044077105035497,2.034734555314853,9.173134233231396
2.8432942722797483,2.04843395555262,9.196637365403955
2.7825184773610503,2.0857959562010744,9.184194530724366
2.7592210893088827,2.1936475980729475,9.137533900675901
2.7237685422729756,2.3134550801523264,9.078776070244501
2.7008087975259123,2.4571742426467162,9.020363874109758
2.689666568457484,2.540366964090609,8.961260409381703
2.690004211762588,2.5891866449379233,8.998588913420475
2.75111764998639,2.5767326447217718,9.059766183928462
2.8858373287228365,2.5625350844753587,9.097440322263887
3.0566848411053984,2.5114736835891374,9.147557295278904
3.1171229927189925,2.4514454025472863,9.231892063662796
3.1039549038199414,2.3667582010774555,9.181775090647779
3.066814140258515,2.318187600234464,9.107809351163546
2.944587263810911,2.3318870004722307,9.04594081206225
2.7848819804967775,2.3000047599188824,9.079467338837812
2.62483905387754,2.2205482385398354,9.124054163106345
2.5259095654821038,2.149062277299125,9.048705886435492
2.5130791198881566,2.0783235560713837,9.095712150780612
2.464796127258302,2.1520512373510012,9.132695020522727
2.354724409794438,2.178453717809243,9.119560917249826
2.30610377385948,2.2155666384533745,9.119560917249826
2.3182589328432193,2.2028635582328997,9.095366516483956
2.4040203323396043,2.2140721584274363,9.157235055585252
2.51510497971878,2.2840636396422087,9.184194530724366
2.589386506841633,2.3538060408526578,9.137879534972557
2.602554595740684,2.4367496822922274,9.091218904924093
2.602554595740684,2.436251522283581,9.067024504158223
2.615722684639735,2.506741163507,9.007921039430167
2.628890773538786,2.5891866449379233,8.924968808232897
2.6420588624378376,2.6596762861613414,8.865865343504844
2.6305789900643055,2.7199536472075154,8.854805046011874
2.6916924282881074,2.7062542469697486,8.84339911422225
2.7524682232068054,2.6671486862910325,8.758718711541704
2.9111605766056274,2.6275449656036702,8.760101248728324
3.0333874530532308,2.5896848049465695,8.809526953150032
3.1920798064520532,2.562286004471036,8.823352325016243
3.3139690395945527,2.5107264435761683,8.788097626757404
3.3997304390909373,2.483825803109281,8.740400093818973
3.4726613929933747,2.447211042473795,8.801231730030304
3.521957315538541,2.4830785630963117,8.851003068748666
3.5590980790999676,2.5064920835026765,8.86379153772491
3.571590881388811,2.5423596041251932,8.864828440614877
3.5233078887589566,2.603135125180013,8.853076874528597
3.4017562989215606,2.688818646667136,8.780148037934332
3.2437392321329463,2.7745021681542594,8.670581965894604
3.0485814017829056,2.861680169667321,8.596961860707028
2.9027194939780308,2.9496054111933514,8.620810627176242
2.80514057880301,2.999919572066604,8.620119358582933
2.744702427189416,3.0492374129225643,8.620119358582933
2.805478222108114,3.0240803324859384,8.632907827559178
2.8419436990593328,3.000666812079573,8.70549102985679
2.8662540170268116,3.0014140520925423,8.778419866451054
2.903057137283134,3.000666812079573,8.77876550074771
2.9520154165231967,2.9892091318807137,8.864137172021566
2.964170575506936,3.001663132096865,8.912871607849963
3.0377768160195813,3.0253257325075533,8.974740146951259
3.099565540853591,3.0589515330911627,8.928079516902796
3.1245511454312775,3.104782253886601,8.83233881672928
3.0401403191553085,3.2001798955423224,8.699615246813648
2.9550542062691316,3.2607063365928193,8.614934844133103
2.906771213639277,3.3082806174185184,8.530254441452557
2.956404779489547,3.353862258209633,8.459399410638222
3.0914621015310977,3.3984475789834563,8.43762444994894
3.274802416202503,3.3700524584906306,8.427601055345935
3.458142730873908,3.32895425777733,8.393383259977062
3.6536382045290527,3.2641934566533415,8.382668596780748
3.8119929146227713,3.1882240553348167,8.371608299287779
3.9703476247164895,3.1249577342367663,8.396839602943615
4.018630617346344,3.051977292970118,8.40824553473324
4.005800171752397,3.0168570123605702,8.431403032609143
3.96865940819097,2.9697808915435173,8.442463330102113
3.9443490902234912,2.9827330517683146,8.466312096571329
3.9315186446295436,2.935407850946939,8.489469594447232
3.9183505557304925,2.8636728097019053,8.48808705726061
3.9055201101365453,2.8168457688891753,8.535438955902386
3.8190834240299525,2.7585610478775857,8.533365150122455
3.7090117065660886,2.7493450877176335,8.543734179022113
3.5499817098621627,2.777242048201813,8.554103207921772
3.40344451544708,2.8051390086859924,8.576569437204366
3.2812176389994767,2.8449918093776776,8.636018536229075
3.1589907625518734,2.8721415298488884,8.647078833722045
3.122187642295551,2.861431089662998,8.670581965894604
3.0975396810229676,2.863174649693259,8.74281953389556
3.109694840006707,2.840010209291217,8.790862701130646
3.1822881506040406,2.7911905284439027,8.851694337341977
3.255556747811582,2.7538285277954477,8.864137172021566
3.315994899425176,2.680349926520153,8.86379153772491
3.364615535360134,2.6439842458889906,8.912180339256652
3.3278124151038115,2.6449805659062826,8.911489070663341
3.3524603763763947,2.6676468462996787,8.875888738107847
3.3281500584089154,2.6676468462996787,8.839251502662385
3.315657256120072,2.6676468462996787,8.827154302279451
3.242388658912531,2.6810971665331222,8.814365833303205
3.2427263022176347,2.7172137671599623,8.81471146759986
3.1944433095877804,2.7655352879986306,8.77876550074771
3.170470634925405,2.8014028086211473,8.74281953389556
3.1579778326365617,2.7784874482234283,8.778419866451054
3.071878789835073,2.769022408059153,8.81332893041324
2.961807072371209,2.7834690483098887,8.800194827140338
2.7082369502381973,3.0868484935753426,8.656756594028392
2.761246949139506,3.4559850599820767,8.543042910428802
3.1275899351772125,3.3259652977254537,8.461127582121499
3.612108078001276,2.886837250103947,8.71413188727317
4.137481060742909,2.756070247834355,8.779802403637676
4.371805514485,2.8895771301515008,8.507096943576652
4.372818444400311,2.971026291565132,8.363313076168051
4.286381758293718,2.8883317301298854,8.33635360102894
4.186101696677867,2.6736247664034316,8.294877485430304
4.085146348451808,2.4230502820544606,8.276904502004228
3.9379338674265174,2.378464961280638,8.273793793334331
3.865340556829184,2.4885583231914183,8.299025096990167
3.9271292816631935,2.5358835240127946,8.324947669239315
4.085821635062016,2.485320283135219,8.386816208340612
4.268824306428317,2.4342588822489972,8.449030381738563
4.415699144148503,2.419314081989615,8.47495295398771
4.415699144148503,2.420061322002584,8.511244555136516
4.330275387957222,2.457672402655362,8.498801720456925
4.269499593038525,2.4843239631179266,8.558942088074946
4.18373819354214,2.5107264435761683,8.582445220247505
4.097976794045755,2.50101232340757,8.59315988344382
4.0000602355656305,2.4915472832432948,8.615626112726414
3.865340556829184,2.493789003282202,8.565509139711397
3.719141005719205,2.5573044043845754,8.576569437204366
3.6215620905441845,2.596160885058968,8.600072569376925
3.6333796062228205,2.5610406044494205,8.660212936994945
3.6799743823271553,2.3692490011206857,8.742128265302249
3.7154269293630624,2.261895519257459,8.825426130796174
3.5803696073215114,2.218306518500928,8.907341459103478
3.360226172393784,2.248196119019692,8.941213620175697
3.116110062803681,2.325909080368478,8.9512370147787
2.944924907116015,2.366509121073132,8.973703244061294
2.7983877127009325,2.418566841976646,9.008957942320134
2.737611917782235,2.455679762620778,8.996860741937198
2.775090324648765,2.502506803433508,8.97404887835795
2.8118934449050874,2.5259203238398733,8.986837347334195
2.8118934449050874,2.5147117236453367,9.023128948483
2.799400642616244,2.516206203671275,9.095366516483956
2.86085172414515,2.5149608036496596,9.096403419373921
2.9462754803364306,2.501510483416216,9.121634723029757
2.9952337595764926,2.5139644836323676,9.207006394303615
2.9827409572876493,2.5037522034551234,9.291341162687505
2.95843063932017,2.5040012834594463,9.278898328007914
2.9948961162713887,2.4912982032389714,9.27924396230457
3.0070512752551286,2.479093283027143,9.291341162687505
3.0556719111900867,2.45418528259484,9.303783997367097
