accx,accy,accz
6.595405012415355,-2.160941182011335,7.236913824533701
6.645098794706202,-2.126694438982734,7.214241020849726
6.670138297410892,-2.07886221111634,7.22741575812555
6.670138297410892,-2.0542385198478414,7.252233286482333
6.6824654372039705,-2.042351220614773,7.264488856041239
6.707119716790126,-2.0432003134171355,7.252846064960279
6.743715913050828,-2.0681070356197546,7.240896884640346
6.76798496951845,-2.0811264585893055,7.228641315081441
6.8165230824536955,-2.118769572827355,7.2044365652026015
6.8165230824536955,-2.1199016965638378,7.144077885124992
6.767599746399917,-2.1196186656297167,7.09505560688937
6.694022130759981,-2.12924171738982,7.129983980132251
6.645484017824736,-2.0675409737515134,7.154801508489035
6.584233541977879,-2.0890513247446845,7.213934631610754
6.535695429042633,-2.0514082105066347,7.238139381489592
6.461732590284164,-2.0610312622667375,7.273374143971445
6.3877697515256955,-2.106599242660166,7.319945308295286
6.28915263318107,-2.150752068382991,7.402364013578926
6.191691184192045,-2.123015036839165,7.486314665057429
6.069190232498332,-2.1196186656297167,7.520936649061337
5.971728783509307,-2.0675409737515134,7.605193689778812
5.886209251194827,-2.0406530350100494,7.652990411058544
5.8006897188803475,-2.0273505811063774,7.615610923903882
5.751766382826569,-2.0259354264357743,7.639202895304774
5.739054019914956,-2.062446416937341,7.602129797389085
5.738668796796422,-2.0740506852362888,7.613772588470046
5.787592132850202,-2.111127737606097,7.6260281580289515
5.848457385578525,-2.1371665835451985,7.590180617069152
5.933976917893005,-2.139430831018164,7.579150604466138
6.007169310414406,-2.1657527078913867,7.543303063506339
6.080746926054342,-2.192923677566971,7.4713015923477695
6.080361702935808,-2.2294346680685377,7.43422849443208
6.091918396491819,-2.2908523807727237,7.3848998269574855
6.091533173373286,-2.3403827942438413,7.3113664096040525
6.054166530875517,-2.388215022110235,7.273680533210418
6.016799888377749,-2.435764219042508,7.260199406695622
6.016414665259215,-2.4830303850406605,7.295740558416448
6.028741805052293,-2.483596446908902,7.283791378096515
6.040298498608304,-2.521239561146951,7.22281991954096
6.01487377278508,-2.604167624844308,7.245186333985963
5.98983427008039,-2.6624719972731667,7.316268637427615
6.051084745927247,-2.6780386986498037,7.195857666511368
6.075739025513404,-2.6947375237629236,6.978014917601823
6.063026662601792,-2.729550328659766,7.025811638881554
6.014488549666547,-2.654547131117788,7.123243416874853
5.929354240470601,-2.6160549240773765,7.146835388275746
5.880045681298288,-2.6412446772141163,7.036841651484569
5.806082842539819,-2.7137005963490086,6.925622357737502
5.719792863988272,-2.7725710306461084,6.874761744068044
5.595751019820423,-2.889462806437946,6.907239003399144
5.497133901475797,-2.9316344156219265,7.098732277757042
5.448210565422018,-2.9409744364479087,7.182682929235544
5.374632949782083,-2.9525787047468564,7.108843122643139
5.263303468525845,-3.044563758336075,7.19034266020986
5.1885701835303095,-3.1243784817581046,7.33312004557111
5.090338288304218,-3.1453227708830345,7.367742029575018
5.004048309752671,-3.1928719678153072,7.305238624824599
4.954739750580358,-3.239572071945218,7.315655858949669
4.916987884964056,-3.3329722802050403,7.410330133792215
4.891948382259366,-3.3663699304312797,7.518179145910583
4.87885079622922,-3.4368446330273272,7.589261449352235
4.928544578520067,-3.406843354010536,7.3242347576409035
4.868449772028811,-3.327311661522627,7.01018578769395
4.673141650932228,-3.2384399482087356,7.03347136985587
4.503643478777404,-3.0623947071856774,7.227722147364522
4.431606755611603,-2.916633776113531,7.229560482798358
4.565664400861328,-2.9794666434883204,7.242428830835209
4.748645382164832,-3.068904418670453,7.19493849879445
4.931241140349803,-3.1433415543441896,7.280727485706788
5.138491178120929,-3.2041932051801343,7.50040857005017
5.45668547402976,-3.2081556382578236,7.674131268547655
5.727112103240412,-3.155794915445499,7.594163677175797
5.9359030334856735,-3.1175857393392086,7.331588099376247
5.960172089953296,-3.1303221313746388,7.319638919056314
6.021422565800154,-3.128340914835794,7.501940516245033
6.010251095362676,-3.0213552217381796,7.419215421722421
5.901232952817641,-2.9254077350712717,7.2739869224493905
5.803771503828616,-2.8755942906660334,7.261424963651512
5.7560038371304385,-2.778797711196763,7.238445770728565
5.695909030639183,-2.683982348266338,7.094136439172452
5.623487084354848,-2.5747324076957585,7.0585952874516265
5.563007054745059,-2.5237868395540373,7.143465106647047
5.599988474124293,-2.486143725315988,7.26571441299713
5.759470845197242,-2.4419908995931627,7.244573555508017
5.992530831910126,-2.4487836420120592,7.175023198261228
6.2737437084397225,-2.467180652729903,7.1786998691289
6.531072751620229,-2.4734073332805577,7.170120970437666
6.677842759781566,-2.476520673555885,7.184214875430408
6.739478458746957,-2.4541612297603517,7.16123568250746
6.702882262486256,-2.4303866312942155,7.100570613190878
6.5930936737041534,-2.4162350845881817,7.087089486676081
6.50718891827114,-2.4252920744800432,7.134273429477868
6.433226079512671,-2.4615200340474894,7.035616094528678
6.383532297221825,-2.5226547158175547,6.925009579259556
6.382761850984757,-2.595959727754809,6.863118952987084
6.370434711191679,-2.619168264352704,6.886710924387977
6.407416130570914,-2.60897915072436,6.838914203108245
6.395474213896369,-2.5617129847262072,6.779168301508581
6.334994184286579,-2.5235038086199166,6.815322231707352
6.310725127818957,-2.4838794778430224,6.973112689778261
6.348091770316725,-2.4102914349716476,7.107923954926221
6.38507318969596,-2.374629537272443,7.1333542617609496
6.422054609075194,-2.350571907872186,7.1707337489156115
6.495632224715129,-2.351987062542789,7.183908486191435
6.544170337650375,-2.3644404236440986,7.220675194868152
6.544940783887442,-2.315759102975343,7.257748292783841
6.533384090331431,-2.243869245708692,7.234769099860893
6.521442173656887,-2.2186794925719524,7.271229419298637
6.534154536568498,-2.1824515330045062,7.296353336894393
6.509885480100876,-2.1465066043711807,7.260199406695622
6.412424031111851,-2.0952780052953393,7.320251697534259
6.33923163859045,-2.0550876126502033,7.440969057689478
6.277981162743592,-2.0392378803394458,7.57363559816463
6.217115910015269,-2.0381057566029632,7.560767250127779
6.106556874996099,-2.072918561499806,7.486008275818456
6.007939756651474,-2.1182035109591135,7.520017481344419
5.921649778099927,-2.1753757596514895,7.566282256429287
5.811090743080757,-2.186130935148075,7.491829671358936
5.712858847854665,-2.208490378943608,7.465786586046262
5.626954092421652,-2.2410389363674854,7.548818069807846
5.577645533249339,-2.2764178031325697,7.523387762973118
5.516009834283948,-2.2999093706645852,7.473446317020578
5.454374135318558,-2.3596288977640474,7.423198481829065
5.356527463210999,-2.3341561136931865,7.386125383913376
5.28256462445253,-2.380290155954856,7.383980659240567
5.2340265115172855,-2.3429300726509275,7.396236228799473
5.257910344866374,-2.3913283623855626,7.419828200200366
5.4166222697022555,-2.4303866312942155,7.4455648962740675
5.648911810178072,-2.4725582404781954,7.399606510428172
5.881201350653889,-2.503408612297349,7.32974976394241
6.052625638401382,-2.5336929222482607,7.210564349982055
6.163184673420552,-2.5014273957585043,7.140094825018348
6.261416568646644,-2.4668976217957823,7.178393479889928
6.359648463872736,-2.4439721161320076,7.240590495401373
6.42166938595666,-2.385101681834908,7.254684400394114
6.4339965257497385,-2.3740634754042014,7.218836859434316
6.409727469282116,-2.36076102150053,7.254990789633087
6.324207936967636,-2.333873082759066,7.302787510912818
6.238688404653156,-2.2956639066527753,7.314430301993779
6.165496012131754,-2.269908091647794,7.313817523515834
6.103860313166363,-2.3021736181375507,7.433309326715162
6.115802229840908,-2.325382154735446,7.493668006792772
6.103860313166363,-2.289154195168,7.493974396031745
6.054936977112584,-2.288022071431517,7.493361617553799
6.006013641058805,-2.2982111850598614,7.528902769274625
5.896225052276703,-2.259435947085329,7.540239171116613
5.810705519962223,-2.2328310392779858,7.563524753278533
5.737127904322288,-2.21783039976959,7.635526224437103
5.736742681203754,-2.2540583593370362,7.634913445959158
5.724415541410676,-2.277549926869052,7.634300667481212
5.711703178499064,-2.30189058720343,7.609483139124429
5.724415541410676,-2.291701473575086,7.524919709167981
5.6870488989129075,-2.3282124640766524,7.463335472134481
5.724415541410676,-2.3064190821493606,7.3796912098949505
5.749069820996833,-2.2832105455514657,7.368354808052963
5.834589353311312,-2.2982111850598614,7.320864476012204
5.920108885625792,-2.3369864230343933,7.285016935052406
6.041839391082439,-2.3879319911761145,7.273680533210418
6.200551315918321,-2.4286884456894913,7.214547410088699
6.261416568646644,-2.4918043439984014,7.129677590893278
6.334608961168046,-2.531145643841175,7.04511416093683
6.358492794517135,-2.581242119180534,6.97188713282237
6.40703090745238,-2.6307725326516516,6.9476823829435315
6.442856657476013,-2.7035114827206645,6.959018784785519
6.442086211238946,-2.776250432789677,6.933282088711818
6.368123372480476,-2.8351208670867774,6.906932614160171
6.270276700372919,-2.8337057124161737,6.8572975574466035
6.159717665353749,-2.843894826044518,6.819305291813996
6.037601936778568,-2.817289918237175,6.818079734858106
5.951697181345555,-2.8382342073621047,6.876906468740852
5.938984818433943,-2.8617257748941203,6.876293690262907
5.951311958227021,-2.874745197863671,6.852088940384069
5.999850071162267,-2.900784043802773,6.803985829865365
6.061100547009124,-2.9021991984733764,6.792649428023377
6.098467189506892,-2.866537300774172,6.830028915178039
6.122736245974514,-2.8540839396728623,6.879051193413661
6.159717665353749,-2.855216063409345,6.867408402332701
6.2090262245260615,-2.8322905577455706,6.868633959288591
6.258334783698374,-2.8096480830159165,6.845348377126671
6.307258119752153,-2.7867225773521422,6.846573934082561
6.36850859559901,-2.787571670154504,6.88364703199825
6.442471434357479,-2.7405885350904726,6.909690117310925
6.50410713332287,-2.7199272768996634,6.814096674751461
6.565357609169728,-2.7233236481091114,6.705941273394121
6.601953805430428,-2.7363430710786623,6.69429848231316
6.638550001691129,-2.748513401245851,6.730758801750904
6.627378531253652,-2.677189605847442,6.671625678629185
6.60310947478603,-2.6412446772141163,6.647727317989319
6.603494697904563,-2.6050167176466705,6.6483400964672645
6.592323227467086,-2.5218056230151924,6.589206973345545
6.5684393941179975,-2.461237003113369,6.589819751823491
6.556112254324919,-2.4717091476758335,6.649872042662127
6.519516058064218,-2.4581236628380414,6.686025972860899
6.4336113026312045,-2.4674636836640236,6.720954346103779
6.372360826784347,-2.441141806790801,6.769057456622484
6.2991684342629455,-2.414536898983458,6.816854177902215
6.2991684342629455,-2.400385352277424,6.925928746976474
6.347706547198191,-2.435764219042508,7.022747746491827
6.4328408563941375,-2.496332838944332,7.1076175656872485
6.505648025797005,-2.53340989131414,7.144384274363965
6.541858998939173,-2.5809590882464133,7.216692134761507
6.52914663602756,-2.6146397694067733,7.312591966559943
6.49255043976686,-2.6132246147361697,7.348439507519742
6.40703090745238,-2.58803486159943,7.3113664096040525
6.284529955758665,-2.598223975227774,7.2611185744125395
6.186683283651107,-2.5970918514912915,7.199227948140067
6.064182331957393,-2.606997934185515,7.160929293268487
6.052240415282848,-2.57105300555219,7.137337321867594
6.076509471750471,-2.607563996053756,7.148980112948554
6.150087087390407,-2.597374882425412,7.138256489584512
6.248318982616499,-2.5772796861028446,7.055225005822927
6.334608961168046,-2.5203904683445892,6.984755480859221
6.39662988325197,-2.474822487951161,6.925928746976474
6.445938442424283,-2.440292713988439,6.903255943292499
6.470977945128973,-2.3927435170561657,6.90448150024839
6.496017447833663,-2.3214197216577563,6.893757876884347
6.558038369917587,-2.2747196175278455,6.895596212318183
6.619674068882978,-2.2280195133979346,6.909383728071952
6.669367851173825,-2.1694321100349554,6.8870173136269495
6.694022130759981,-2.1467896353053013,6.839220592347218
6.645869240943269,-2.085654953535236,6.839833370825163
6.560734931747323,-2.034709385393515,6.887936481343867
6.487157316107388,-2.008104477586172,6.935733202623599
6.438619203172142,-1.9704613633481225,6.959937952502437
6.438619203172142,-1.9809335079105874,7.03224581289998
6.425906840260531,-1.9911226215389315,7.116809242856427
6.487157316107388,-2.0030099207719996,7.20198545129082
6.560734931747323,-2.003859013574362,7.239364938445482
6.62198540759418,-1.9684801468092776,7.277050814839117
6.64702491029887,-1.9316861253735904,7.350890621431523
6.672064413003561,-1.883570866573076,7.388270108586185
6.685161999033706,-1.8122470711746665,7.353341735343304
6.673220082359162,-1.7646978742423935,7.3178005836224775
6.624681969423916,-1.7151674607712757,7.330056153181383
6.600798136074827,-1.679505563072071,7.281953042662679
6.576914302725738,-1.6438436653728663,7.2338499321439755
6.528376189790493,-1.5841241382734044,7.161848460985405
6.4555690203876255,-1.522989456503339,7.125388141547662
6.431299963920003,-1.5232724874374597,7.076672252551012
6.370049488073145,-1.5108191263361501,7.0276499743153895
6.345395208486989,-1.5354428176046486,6.966372126520862
6.345009985368455,-1.5711047153038535,6.989964097921756
6.3935480983037,-1.6195030050384884,7.038067208440459
6.417431931652789,-1.667335232904882,7.0739147494002586
6.4779119612625795,-1.7406402448421363,7.0855575404812186
6.464814375232434,-1.8252664941442174,7.035616094528678
6.378524396680887,-1.8838538975071966,7.0212158002969645
6.29223441812934,-1.918100640535798,7.007121895304223
6.21827157937087,-1.9645177137315883,7.005283559870388
6.193617299784714,-1.9761219820305358,6.9927216010725095
6.2059444395777925,-1.9882923121977247,7.004670781392442
6.242155412719959,-2.0372566638006013,6.992108822594564
6.27875160898066,-2.0381057566029632,7.004977170631415
6.303020665448283,-2.0630124788055824,6.980466031513604
6.303020665448283,-2.050276086770152,7.0172327401903205
6.314962582122828,-2.061597324134979,7.065335850709024
6.33923163859045,-2.085654953535236,7.101796170146768
6.375827834851151,-2.121882913102682,7.13795010034554
6.3873845284071615,-2.1691490791008348,7.185440432386298
6.4108831386377165,-2.2418880291698473,7.184521264669381
6.4104979155191835,-2.3021736181375507,7.171346527393557
6.4101126924006495,-2.3146269792388603,7.1590909578346515
6.4104979155191835,-2.30189058720343,7.195551277272395
6.435152195105339,-2.253492297468795,7.245186333985963
6.509500256982342,-2.206792193338884,7.259280238978704
6.58230742638521,-2.2450013694451747,7.235381878338838
6.668212181818224,-2.235944379553313,7.176248755217119
6.717135517872003,-2.2384916579603993,7.104247284058549
6.754116937251237,-2.2401898435651235,7.056144173539845
6.766829300162849,-2.2053770386682805,7.008653841499086
6.779541663074461,-2.145374480634698,7.022134968013883
6.76798496951845,-2.0845228297987535,7.047258885609639
6.7930244722231405,-2.0488609320995486,7.048178053326557
6.805351612016218,-2.037539694734722,7.0365352622455966
6.805351612016218,-2.049710024901911,7.024279692686691
6.829235445365307,-2.073767654302168,7.048178053326557
6.85350450183293,-2.0983913455706666,7.048178053326557
6.865831641626008,-2.098957407438908,7.036228873006624
6.865446418507474,-2.1363174907428366,6.974951025212096
6.853119278714396,-2.1479217590417843,6.974644635973124
6.791868802867539,-2.1459405425029394,6.9979302181350445
6.718291187227604,-2.1433932640958533,7.045420550175803
6.645098794706202,-2.1173544181567516,7.069012521576696
6.548022568835711,-2.0536724579796,7.141626771213211
6.47483017631431,-2.0151802509391885,7.177474312173009
6.38931064399983,-2.001028704233155,7.188504324776025
6.303405888566816,-2.0109347869273786,7.199227948140067
6.2540973293945035,-2.0335772616570322,7.210257960743082
6.216345463778202,-2.104334995187201,7.2326243751880845
6.215960240659668,-2.1640545222866625,7.255909957350005
6.215575017541134,-2.1875460898186785,7.279501928750898
6.153939318575744,-2.2339631630144687,7.289919162875968
6.104630759403431,-2.2322649774097445,7.325766703835766
6.105015982521965,-2.2195285853743143,7.36222702327351
6.129285038989587,-2.2192455544401937,7.410942912270159
6.202092208392456,-2.2679268751089494,7.4596588012668095
6.299938880500013,-2.3055699893469987,7.496425509943526
6.348091770316725,-2.3556664646863577,7.448016010185849
6.360804133228337,-2.3449112891897723,7.399912899667145
6.287611740706935,-2.3075512058858436,7.375401760549334
6.202477431510989,-2.269625060713673,7.374788982071388
6.141612178782665,-2.2200946472425556,7.374788982071388
6.031823590000563,-2.1943388322375745,7.337409494916726
5.921264554981393,-2.2166982760331075,7.287161659725214
5.811090743080757,-2.214434028560142,7.273374143971445
5.712858847854665,-2.223774049386124,7.29604694765542
5.700531708061587,-2.2342461939485894,7.368354808052963
5.797993157050612,-2.2704741535160355,7.465786586046262
5.920108885625792,-2.296796030389258,7.5034724624398965
6.066878893787129,-2.3239670000648425,7.505004408634759
6.164725565894687,-2.350571907872186,7.493974396031745
6.188609399243776,-2.3986871666727,7.517566367432638
6.175897036332164,-2.422744796072957,7.504698019395787
6.102704643810762,-2.4210466104682333,7.503778851678869
5.9798184689985145,-2.441707868659042,7.525838876884899
5.833048460837177,-2.4380284665154734,7.548205291329901
5.747143705404164,-2.4235938888753195,7.571490873491822
5.661238949971151,-2.4465193945390937,7.533498607859214
5.563007054745059,-2.4785018900947295,7.616223702381827
5.477102299312045,-2.475388549819402,7.687612395062452
5.366928487411409,-2.4844455397112637,7.710285198746426
5.2563694523922395,-2.4935025296031252,7.732651613191429
5.158522780284681,-2.5028425504291074,7.755324416875404
5.060290885058589,-2.5005783029561424,7.754098859919514
4.998269962974665,-2.57105300555219,7.763903315566639
4.948961403802352,-2.606148841383153,7.750422189051842
4.8746133419253495,-2.67634051304508,7.7602266446989665
4.776381446699258,-2.72275758624087,7.73387717014732
4.702418607940789,-2.7700237522390223,7.683629334955807
4.567590516453996,-2.792100165100435,7.620819540966417
4.43237720184867,-2.812761423291244,7.630623996613541
4.2605676909826435,-2.856914249014069,7.639509284543747
4.211644354928864,-2.8444608879127595,7.602742575867031
4.235528188277953,-2.905595569682825,7.565669477951341
4.344931553941522,-2.993335159260233,7.517259978193665
4.454334919605091,-3.0700365424069354,7.408491798358378
4.539469228801037,-3.1212651414827772,7.348439507519742
4.6249887611155165,-3.1724937405586187,7.275825257883226
4.722064986986007,-3.2358926698016495,7.227722147364522
4.795642602625943,-3.227401741778029,7.119873135246154
4.930085470994201,-3.2670260725549234,7.096893942323206
5.064143116243926,-3.342595331965143,7.085251151242246
5.2347969577543525,-3.4190136841777248,7.062271958319298
5.417777939057856,-3.473072592594773,6.9669849049988075
5.62579842306605,-3.503356902545685,6.896821769274074
5.760626514552843,-3.5047720572162886,6.971274354344424
5.920108885625792,-3.4592040768228602,7.0469524963706665
6.06803456314273,-3.3915596835680195,6.977402139123877
6.1785935981619,-3.3474068578451943,6.907239003399144
6.2529416600389025,-3.2763660933809056,6.945844047509696
6.339616861708984,-3.1690973693491706,6.997317439657099
6.402023006911442,-3.0612625834491944,7.060740012124435
6.415891039178655,-2.916633776113531,7.099957834712932
6.405104791859712,-2.7711558759755053,7.15081844838239
6.431299963920003,-2.6384143678729095,7.213934631610754
6.444782773068682,-2.5314286747752957,7.167669856525885
6.421284162838126,-2.422744796072957,7.169508191959721
6.385458412814493,-2.324250030998963,7.243347998552127
6.312651243411625,-2.2600020089535704,7.376627317505224
6.301094549855614,-2.1864139660821955,7.438211554538724
6.265268799831981,-2.1128259232108206,7.475284652454413
6.2529416600389025,-2.0870701082058396,7.560460860888806
6.277981162743592,-2.038388787537084,7.610095917602374
6.302635442329749,-2.040086973141808,7.56199280708367
6.277981162743592,-2.038954849405325,7.585891167723536
6.265654022950515,-2.0494269939677903,7.645943458562173
6.2282873804527465,-2.121316851234441,7.619900373249498
6.1785935981619,-2.1702812028373173,7.509293857980376
6.105015982521965,-2.2183964616378318,7.422892092590093
5.994071724384261,-2.264813534833622,7.3720314789206345
5.907781745832714,-2.3109475770952916,7.369886754247826
5.858858409778935,-2.3341561136931865,7.356712016972002
5.796837487695011,-2.3825544034278217,7.258054682022814
5.723259872055075,-2.416801146456423,7.268471916147883
5.698605592468919,-2.4269902600847675,7.32852420698652
5.735587011848153,-2.403781723486872,7.341698944262344
5.796067041457943,-2.453878198826231,7.305238624824599
5.869644657097878,-2.4552933534968346,7.318413362100423
5.954778966293825,-2.516994097135141,7.3306689316593285
6.027971358815226,-2.555203273241432,7.306770571019463
6.039913275489771,-2.5679396652768625,7.282565821140625
6.051855192164315,-2.604450655778429,7.281953042662679
6.088066165306482,-2.6395464916093925,7.378772042178032
6.136989501360262,-2.641810739082358,7.318719751339396
6.124662361567183,-2.6794538533204073,7.209032403787192
6.050699522808714,-2.7029454208524233,7.147141777514719
5.903929514647377,-2.687661750409907,7.145303442080883
5.745217589811496,-2.6590756260637187,7.191874606404724
5.537582328921835,-2.6067149032513943,7.165831521092049
5.354216124499797,-2.5532220567025874,7.224658254974796
5.2563694523922395,-2.536806262523588,7.34476283665207
5.244427535717695,-2.49972921015378,7.381529545328786
5.269467038422385,-2.4521800132215072,7.382755102284677
5.34304465406232,-2.4535951678921104,7.395623450321528
5.428949409495334,-2.4170841773905436,7.530741104708461
5.466316051993102,-2.3684028567217883,7.604887300539839
5.539893667633037,-2.3341561136931865,7.606419246734703
5.5522208074261155,-2.346043412926255,7.6183684270546355
5.601144143479894,-2.346609474794496,7.655441524970325
5.64968225641514,-2.3715161969971157,7.66769709452923
5.6862784526758405,-2.3859507746372697,7.583440053811755
5.698220369350385,-2.434915126240146,7.546366955896065
5.698220369350385,-2.4468024254732144,7.558316136215998
5.7101622860249295,-2.471426116741713,7.533804997098187
5.697835146231851,-2.460953972179248,7.448935177902767
5.734816565611085,-2.4380284665154734,7.437905165299751
5.784510347901932,-2.402366568816269,7.463335472134481
5.858473186660401,-2.331042773417859,7.514196085803938
5.969802667916638,-2.2483977406546227,7.577618658271274
6.055707423349652,-2.2150000904283837,7.543303063506339
6.056092646468185,-2.2039618839976773,7.494893563748662
6.056863092705253,-2.131505964862785,7.508374690263459
6.020652119563086,-2.082258582325788,7.520936649061337
5.99599783997693,-2.080560396721064,7.5809889398999735
5.983670700183851,-2.091881634085891,7.604887300539839
5.971343560390773,-2.1040519642530797,7.580376161422028
5.945918834567549,-2.1632054294843006,7.603048965106003
5.87195599580908,-2.196320048776419,7.674131268547655
5.8226474366367675,-2.2546244212052775,7.708753252551563
5.761011737671377,-2.290003287970362,7.658811806599023
5.723259872055075,-2.374629537272443,7.5840528322897
5.685893229557307,-2.4346320953060254,7.546060566657093
5.660853726852617,-2.4943516224054876,7.532579440142297
5.66008328061555,-2.542183850271881,7.543915841984284
5.635429001029393,-2.5795439335758097,7.44587128551304
5.610004275206169,-2.676906574913321,7.3591631308837835
5.584579549382946,-2.7612497932812814,7.308915295692271
5.571867186471334,-2.7986098765852105,7.223432698018906
5.584579549382946,-2.7889868248251077,7.114664518183619
5.560310492915323,-2.778231649328522,7.029794698988199
5.524099519773156,-2.7431358134975588,6.933282088711818
5.58612044185708,-2.6870956885416653,6.789891924872623
5.683967113964639,-2.716813936624336,6.609122273878767
5.8916023748542985,-2.7575703911377127,6.611266998551575
6.160102888472283,-2.8237996297219503,6.614024501702329
6.380450512273555,-2.8659712389059306,6.555810546297528
6.441315765001878,-2.893142208581515,6.47124711634108
6.319200036426698,-2.865405177037689,6.518431059142866
6.001776186754935,-2.758419483940075,6.709617944261792
5.831507568363043,-2.6186022024844626,6.903562332531472
5.7093918397878625,-2.590016078138275,6.986900205532029
5.672795643527161,-2.5764305933004823,7.035003316050734
5.733275673136951,-2.612941583802049,7.083719205047383
5.745217589811496,-2.661339873536684,7.070850857010532
5.659312834378482,-2.671812018099149,7.0573697304957355
5.512157603098611,-2.6670004922190977,7.1281456446984155
5.35344567826273,-2.6239797902327555,7.29604694765542
5.26792614594825,-2.5945445730842054,7.489072168208183
5.328406175558039,-2.629640408915169,7.610095917602374
5.511772379980077,-2.6947375237629236,7.56321836403956
5.730964334425749,-2.809365052081796,7.491523282119964
5.949771065752887,-2.958805385297511,7.479880491039003
6.145079186849468,-3.0239025001452657,7.445258507035095
6.340387307946051,-3.0785274704305556,7.349971453714605
6.5237535123680885,-3.107396625710864,7.315655858949669
6.6585816038548815,-3.1116420897226744,7.2571355143058955
6.806122058253286,-3.080791717903521,7.162767628702323
6.904353953479378,-3.048809222347885,7.055837784300873
6.978316792237846,-3.0171097577263697,6.9243968007816115
7.015683434735615,-2.9602205399681143,6.804904997582282
7.016453880972682,-2.9135204358382034,6.720954346103779
7.01722432720975,-2.843611795110397,6.613411723224384
7.030321913239895,-2.7731370925143497,6.542329419782732
7.030707136358429,-2.737758225749266,6.5064818788229335
7.0434194992700405,-2.715115751019612,6.446735977223269
7.007208526127873,-2.668415646889701,6.337967797387982
6.958285190074094,-2.6678495850214596,6.301201088711266
6.958670413192628,-2.643225893752961,6.337967797387982
6.958670413192628,-2.6302064707834103,6.38637729714566
6.995266609453329,-2.631055563585772,6.386990075623604
6.98293946966025,-2.654830162051909,6.38637729714566
6.909361854020315,-2.6780386986498037,6.336435851193119
6.689014230219043,-2.674359296506235,6.2730132787257835
6.468666606417771,-2.6576604713931156,6.246051025696191
6.224049926148876,-2.6154888622091352,6.279753841983181
6.077279917987539,-2.598223975227774,6.374734506064699
6.089992280899151,-2.5376553553259504,6.4124203824583335
6.164340342776153,-2.4666145908616617,6.451025426568886
6.299938880500013,-2.385101681834908,6.478600458076423
6.459806474691495,-2.327646402208411,6.530073850223826
6.606961705971367,-2.3058530202811194,6.593190033452189
6.705193601197458,-2.270757184450156,6.655693438202608
6.816137859335162,-2.199999450919988,6.719116010669944
6.927082117472866,-2.117071387222631,6.794794152696185
7.001815402468401,-2.0103687250591373,6.797551655846939
7.06422154767086,-1.8906466399260928,6.8612806175532475
7.138954832666396,-1.7822457921578752,6.960857120219355
7.176706698282699,-1.6741279753237783,6.99976855356888
7.18941906119431,-1.6262957474573847,7.000687721285797
7.165920450963755,-1.566293189423802,6.977402139123877
7.166305674082288,-1.5314803845269593,6.905400667965307
7.142036617614666,-1.509120940731426,6.784376918571116
7.080786141767809,-1.5215743018327357,6.686638751338844
7.031477582595496,-1.5685574368967674,6.697055985463914
7.00682330300934,-1.579312612393353,6.732903526423713
7.018379996565351,-1.6149745100925577,6.756495497824606
7.055361415944585,-1.5911999116264213,6.793874984979268
7.055361415944585,-1.5920490044287832,6.74546548522159
6.994110940097728,-1.5909168806923006,6.73259713718474
6.859282848610936,-1.6231824071820573,6.76629995347173
6.711357171093997,-1.6896946767004153,6.883953421237223
6.53954766022797,-1.6956383263169494,6.990576876399701
6.404719568741178,-1.7154504917053965,7.048790831804502
6.379680066036488,-1.75054632753636,7.072076413966422
6.367352926243409,-1.7731888022660136,7.131822315566087
6.3426986466572535,-1.7836609468284785,7.191874606404724
6.281062947691862,-1.8051712978216496,7.23905854920651
6.219427248726471,-1.8388519789820097,7.298191672328229
6.084984380358213,-1.799793710073357,7.296966115372339
6.012177210955345,-1.7389420592374123,7.2366074352947285
6.012947657192412,-1.6922419551075014,7.164605964136159
6.111564775537038,-1.6240314999844192,7.082493648091492
6.3203557057822985,-1.5945962828358693,6.98935131944381
6.565742832288262,-1.5544058901907338,6.872310630156263
6.847726155054924,-1.5402543434847,6.694911260791105
7.154748980526278,-1.4777045070440316,6.555197767819583
7.412848469943852,-1.4256268151658278,6.450719037329913
7.645908456656736,-1.408078897250346,6.394037028119976
7.915179416511787,-1.4035504023044152,6.325099449351132
8.123585123638515,-1.3990219073584844,6.182934842467828
8.319663690972165,-1.394210381478433,6.040463846345552
8.466433699133502,-1.4358159287941719,5.932921223466155
8.612818484176305,-1.489308775342979,5.813123031027854
8.673683736904628,-1.5413864672211828,5.6798437120747565
8.697567570253717,-1.6144084482243164,5.654719794479001
8.684855207342105,-1.6619576451565894,5.677698987401948
8.67175762131196,-1.7092238111547418,5.700984569563869
8.646332895488737,-1.804039174085167,5.735300164328804
8.620908169665514,-1.8988545370155923,5.7815649394136726
8.546174884669977,-2.0041420445084825,5.839166116340529
8.398634430271573,-2.0474457774289454,5.90902286282629
8.189458276907777,-2.114524108815545,5.928938163359511
7.93212923372727,-2.1309399029945437,6.009824922448288
7.6990692470143856,-2.173111512178524,6.041995792540415
7.490278316769124,-2.215566152296625,6.08672862143042
7.306526889228553,-2.223207987517883,6.083971118279666
7.17169879774176,-2.2322649774097445,6.0821327828458305
7.122390238569447,-2.2435862147745715,6.057008865250074
7.147044518155604,-2.2322649774097445,6.057315254489047
7.1586012117116145,-2.279531143407897,6.117367545327683
7.232564050470084,-2.2444353075769334,6.155359810960291
7.2695454698493185,-2.208773409877729,6.168534548236114
7.294584972554008,-2.185281842345713,6.169147326714059
7.294970195672542,-2.137449614479319,6.170066494430977
7.295355418791075,-2.1131089541449413,6.182628453228856
7.295740641909609,-2.064427633476186,6.207752370824611
7.296125865028143,-2.0395209112735664,6.256774649060233
7.345049201081922,-2.0151802509391885,6.330308066413667
7.44289587318948,-2.0290487667111017,6.355738373248395
7.577338741557739,-2.043483344351256,6.393730638881003
7.675570636783831,-2.0446154680877386,6.4433656955945695
7.737206335749221,-1.9993305186284311,6.384538961711823
7.786129671803001,-2.0265014883040156,6.275770781876537
7.786129671803001,-2.0151802509391885,6.2396168516777655
7.786129671803001,-2.026784519238136,6.263821601556605
7.810398728270623,-2.027067550172257,6.27607717111551
7.810783951389157,-2.0163123746756715,6.203769310717967
7.774187755128456,-2.017444498412154,6.094388352404736
7.737591558867755,-2.0041420445084825,6.1182867130446015
7.651686803434742,-1.9891414050000868,6.177726225405293
7.554225354445717,-1.9622534662586228,6.213267377126119
7.40745534628438,-1.9214970117452461,6.2846560698067435
7.2240891418623425,-1.9039490938297643,6.342870025211544
7.065377217026461,-1.838568948047889,6.438463467771007
7.004126741179604,-1.8249834632100967,6.450106258851968
7.065377217026461,-1.85158837101744,6.390053968013331
7.187492945601641,-1.8787593406930245,6.3670747750903836
7.345434424200456,-1.9645177137315883,6.464506553083682
7.467164929657103,-2.037539694734722,6.573887511396913
7.539972099059971,-2.0986743765047873,6.610041441595685
7.527259736148359,-2.122165944036803,6.621377843437672
7.466009260301502,-2.157544810801887,6.583691967044038
7.392431644661566,-2.157544810801887,6.4859537998117665
7.318854029021631,-2.1682999862984724,6.472472673296971
7.25721833005624,-2.2150000904283837,6.470634337863134
7.170157905267626,-2.3214197216577563,6.455621265153475
7.059213647129922,-2.379724094086615,6.404454262245045
6.924000332524596,-2.436896342778991,6.401696759094291
6.813441297505426,-2.458406693772162,6.3995520344214825
6.764132738333113,-2.505955890704435,6.361866158027849
6.751420375421501,-2.542183850271881,6.348997809990998
6.751420375421501,-2.5424668812060016,6.324793060112159
6.762977068977512,-2.60473368671255,6.227054892879888
6.7502647060659005,-2.653698038315426,6.165470655846388
6.7498794829473665,-2.6896429669487514,6.16455148812947
6.762206622740445,-2.7009642043135784,6.212960987887146
6.761436176503377,-2.7615328242154025,6.1878370702913905
6.7487238135917655,-2.797760783782848,6.1749687222545395
6.699800477537987,-2.8082329283453134,6.1982543044164595
6.588856219400283,-2.853517877804621,6.207752370824611
6.454028127913491,-2.8625748676964826,6.19365846583187
6.343854316012854,-2.8588954655529135,6.252791588953589
6.270276700372919,-2.8549330324752242,6.372896170630863
6.245622420786763,-2.8659712389059306,6.396488142031757
6.197084307851517,-2.8538009087387417,6.347772253035107
6.1847571680584394,-2.8407814857691904,6.3839261832338785
6.173200474502428,-2.7793637730650045,6.445510420267379
6.1855276142955065,-2.7544570508623853,6.5064818788229335
6.198625200325652,-2.6941714618946824,6.531912185657662
6.198625200325652,-2.6808690079910105,6.5928836442132175
6.223279479911809,-2.6678495850214596,6.6780598526476105
6.247933759497965,-2.6435089246870818,6.727388520122205
6.260646122409576,-2.6078470269878773,6.716052118280217
6.248318982616499,-2.5956766968206884,6.716052118280217
6.248704205735032,-2.5835063666534994,6.71635850751919
6.248704205735032,-2.5840724285217407,6.692153757640352
6.236377065941954,-2.5707699746180688,6.740563257398028
6.260646122409576,-2.5823742429170164,6.801228326714611
6.358492794517135,-2.60897915072436,6.77794274455269
6.4559542435061585,-2.635867089465824,6.742401592831865
6.578069972081339,-2.6859635648051827,6.779474690747554
6.688243783981975,-2.6887938741463895,6.769057456622484
6.737937566272822,-2.6429428628188405,6.709924333500765
6.689399453337577,-2.5823742429170164,6.686025972860899
6.628534200609253,-2.544731128678967,6.686025972860899
6.5672837247623965,-2.543315974008364,6.6973623747028865
6.604650367260164,-2.5082201381774003,6.686332362099872
6.616207060816175,-2.5809590882464133,6.660902055265143
6.676687090425965,-2.640678615345875,6.757414665541524
6.7745337625335225,-2.6299234398492897,6.807662500733036
6.872765657759614,-2.5976579133595328,6.736886586530357
6.934786579843539,-2.5651093559356557,6.6173947833310285
7.033018475069631,-2.5317117057094163,6.595028368886026
7.1801737063495015,-2.511050447518607,6.597479482797807
7.303059881161749,-2.4796340138312125,6.503111597194234
7.340041300540984,-2.4569915391015584,6.479826015032314
7.3157722440733615,-2.4547272916285934,6.564083055749789
7.279561270931194,-2.393026547990287,6.613105333985411
7.243350297789027,-2.357364650291082,6.540491084348896
7.182870268179237,-2.296512999455137,6.504643543389098
7.134332155243992,-2.2464165241157783,6.553359432385747
7.1351026014810595,-2.1612242129454557,6.615250058658219
7.135487824599593,-2.1142410778814242,6.5555041570585555
7.148200187511205,-2.0904664794152876,6.556116935536501
7.185181606890439,-2.0550876126502033,6.569598062051297
7.197893969802052,-2.0066893229155687,6.606977549205959
7.247202528974364,-1.9962171783531037,6.583385577805065
7.210991555832197,-1.94838495048671,6.5233332869664284
7.199049639157653,-1.937063713121883,6.474923787208752
7.199049639157653,-1.9135721455898673,6.451331815807858
7.137799163310795,-1.912156990919264,6.450412648090941
7.137799163310795,-1.9237612592182114,6.4743110087308064
7.174010136452963,-1.9599892187856576,6.498515758609645
7.320780144614299,-1.9891414050000868,6.415177885609087
7.430953956514935,-2.0171614674780334,6.331533623369557
7.442510650070946,-2.065842788146789,6.318665275332706
7.331951615051777,-2.109146521067252,6.4252887304951845
7.147814964392671,-2.139430831018164,6.506788268061906
6.890485921212164,-2.132638088599268,6.564083055749789
6.657040711380747,-2.187263058884558,6.571742786724105
6.509500256982342,-2.255190483073519,6.60483282453315
6.447094111779884,-2.3367033921002727,6.674995960257884
6.422054609075194,-2.407461125630441,6.709617944261792
6.384687966577426,-2.4547272916285934,6.708392387305902
6.36003368699127,-2.4547272916285934,6.671625678629185
6.31111035093749,-2.4541612297603517,6.646808150272402
6.213263678829932,-2.4507648585509036,6.705941273394121
6.127744146515452,-2.4128387133787337,6.705634884155148
6.042224614200973,-2.4224617651388365,6.728307687839123
6.017570334614816,-2.4210466104682333,6.7644616180378945
5.9813593614726495,-2.3836865271643046,6.800921937475638
6.006398864177339,-2.323683969130722,6.814403063990434
6.190535514836444,-2.291701473575086,6.829722525939066
6.398555998844639,-2.284625700222069,6.820530848769887
6.680539321611302,-2.266511720438346,6.849025047994342
6.888945028738029,-2.2464165241157783,6.900804829380718
7.0361002600179,-2.2127358429554183,6.951665443050175
7.097735958983291,-2.1898103372916435,6.965146569564972
7.048812622929512,-2.1640545222866625,7.001300499763743
6.93902403414741,-2.123864129641527,7.07299558168334
6.792639249104607,-2.072918561499806,7.059820844407517
6.645484017824736,-2.0938628506247356,7.033164980616897
6.547252122598644,-2.104334995187201,6.995479104223263
6.486001646751787,-2.1399968928864053,6.945537658270723
6.472904060721642,-2.201697636524712,6.847186712560506
6.472904060721642,-2.2401898435651235,6.713601004368436
6.472518837603108,-2.2767008340666903,6.68847708677268
6.496402670952197,-2.3137778864364984,6.676221517213775
6.52067172741982,-2.3635913308417367,6.602994489099314
6.53222842097583,-2.4241599507435607,6.590126141062464
6.457880359098827,-2.4804831066335744,6.696749596224941
6.274128931558256,-2.4878419109207117,6.730452412511932
6.066108447550062,-2.4606709412451275,6.643437868643702
5.932436025418871,-2.4001023213433035,6.50954577121266
5.932821248537404,-2.3638743617758573,6.510158549690605
6.202092208392456,-2.3817053106254598,6.525478011639237
6.531457974738762,-2.4878419109207117,6.4072117653957985
6.824997991061436,-2.556335396977915,6.313456658270171
7.057672754655787,-2.5625620775285696,6.268111050902221
7.217155125728736,-2.532560798511778,6.149844804658783
7.340426523659517,-2.46604852899342,6.007680197775479
7.463697921590299,-2.4233108579411984,5.876851992734163
7.635507432456326,-2.380290155954856,5.807608024726346
7.831585999789976,-2.385667743703149,5.761649638880451
8.039221260679637,-2.4507648585509036,5.751232404755381
8.173278905929362,-2.5045407360338316,5.6191786427581745
8.160951766136284,-2.531145643841175,5.461081795448294
8.014952204212014,-2.459821848442765,5.242626268060803
7.634736986219259,-2.4785018900947295,5.708950689777158
7.207909770883927,-2.33132580435198,5.342509159965883
6.51758994247155,-2.6327537491904964,6.356044762487368
7.617787169003776,-2.7952135053757625,6.719422399908916
8.5715996104932,-3.0275819022888344,5.772679651483466
9.108215414610635,-3.279479433656233,5.182573977222166
9.38827262178463,-3.414202158297673,5.389693102767669
8.899809707483906,-3.309763743607145,5.227613195351144
8.04461438433911,-3.1223972652192598,5.1948295467810714
7.445592435019216,-2.9715417773329413,5.4552603999078135
7.127783362228919,-2.9273889516101166,5.499993228797819
7.0900314966126174,-3.0103170153074736,5.5223596432428215
7.308838227939755,-3.1447567090147928,5.6682009209937965
7.540742545297038,-3.2101368547966684,5.658090076107699
7.627032523848585,-3.1900416584741005,5.562803022787209
7.5426686608897064,-3.043714665533713,5.576284149302006
7.397824768321038,-2.8580463727505516,5.674635095012222
7.252595652633835,-2.6853975029369415,5.736219332045723
7.1555194267633455,-2.5987900370960157,5.748474901604628
7.082327034241944,-2.573883314893396,5.711401803688939
7.0210765583950865,-2.5730342220910343,5.67432870577325
7.0210765583950865,-2.5702039127498275,5.81955720504628
7.094654174035021,-2.5591657063191215,5.869192261759847
7.119693676739712,-2.5243529014222785,5.833957499277994
7.083867926716078,-2.4391605902519564,5.834876666994911
7.047271730455377,-2.4233108579411984,5.992054346587874
6.9983483944015985,-2.3715161969971157,6.1375892350998775
6.925156001880197,-2.34377916545329,6.246051025696191
6.888559805619496,-2.316608195777705,6.3670747750903836
6.876617888944952,-2.2786820506055347,6.4522509835247766
6.926311671235798,-2.2192455544401937,6.466038499278545
7.025314012698957,-2.1371665835451985,6.481051571988204
7.123931131043582,-2.0553706435843244,6.483809075138958
7.284183948353599,-1.9868771575271214,6.48748574600663
7.431339179633469,-1.9662158993363124,6.489936859918411
7.566167271120261,-1.9449885792772619,6.504030764911152
7.72564964219321,-1.9364976512536418,6.5064818788229335
7.824266760537836,-1.8804575262977485,6.412113993219361
7.849306263242526,-1.8476259379397506,6.280060231222154
7.8134805132188925,-1.7771512353437031,6.147700079985975
7.765327623402181,-1.7179977701124824,6.038931900150688
7.729116650260014,-1.6582782430130205,5.979185998551024
7.729501873378547,-1.6220502834455746,5.979798777028969
7.77881043255086,-1.5869544476146111,5.993279903543765
7.901311384244575,-1.5778974577227496,5.9828626694186955
8.0365246988499,-1.5575192304660612,5.961109033451638
8.159025650543615,-1.549028302442441,5.92648704944773
8.269584685562785,-1.5275179514492698,5.9286317741205385
8.330835161409642,-1.5167627759526843,5.929550941837457
8.380143720581955,-1.5065736623243402,5.89400979011663
8.355104217877265,-1.5297821989222353,5.9053461919586185
8.330835161409642,-1.5164797450185636,5.941806511396362
8.293853742030407,-1.5394052506823381,5.952836523999377
8.281141379118795,-1.599973870584162,5.915150647605743
8.23144759682795,-1.658844304881262,5.913618701410879
8.181753814537103,-1.7055444090111729,5.936291505094855
8.132060032246256,-1.7513954203387219,5.995118238977601
8.058097193487788,-1.8094167618334598,6.005229083863698
7.9479233815871515,-1.806586452492253,6.0279018875476735
7.8130952901003585,-1.8266816488148208,6.061911093073636
7.641285779234332,-1.8224361848030106,6.083971118279666
7.469861491486839,-1.8416822883232165,6.129623114886589
7.273397701034655,-1.871400536405887,6.223071832773243
7.138184386429329,-1.8903636089919722,6.329695287935722
7.028010574528693,-1.886118144980162,6.413033160936279
6.979087238474913,-1.883570866573076,6.496983812414782
6.942105819095679,-1.8804575262977485,6.61770117257
6.917066316390989,-1.913855176523988,6.72555018468837
6.868528203455744,-1.8756460004176971,6.773959684446046
6.78262344802273,-1.8980054442132304,6.760172168692277
6.72098774905734,-1.9316861253735904,6.807356111494063
6.64702491029887,-1.95263041449852,6.890693984494621
6.610043490919636,-1.9758389510964152,6.889468427538731
6.573062071540401,-2.0117838797297405,6.840139760064136
6.560734931747323,-2.023671178962809,6.83952698158619
6.58538921133348,-2.025369364567533,6.779474690747554
6.622370630712714,-1.9905565596706902,6.756495497824606
6.6593520500919485,-1.980367446042346,6.708698776544874
6.672064413003561,-1.957724971312692,6.648646485706237
6.684391552796638,-1.935365527517159,6.576645014547667
6.684776775915172,-1.912156990919264,6.528848293267936
6.770681531348186,-1.9031000010274024,6.48166435046615
6.917451539509523,-1.906779403170971,6.45960432526012
7.100817743931561,-1.947535857684348,6.437237910815117
7.321165367732833,-1.9534795073008822,6.3915859142081946
7.505302018391938,-1.935365527517159,6.297830807082567
7.554610577564251,-1.913855176523988,6.22613572516297
7.530726744215162,-1.8648908249211116,6.250953253519754
7.4941305479544615,-1.827247710683062,6.287413572957497
7.433265295226137,-1.8017749266122016,6.287107183718525
7.433265295226137,-1.8012088647439604,6.323261113917296
7.457149128575226,-1.8371537933772857,6.3594150441160675
7.493360101717394,-1.8858351140460414,6.3710578351970275
7.5176291581850165,-1.9226291354817289,6.358802265638122
7.5176291581850165,-1.9220630736134874,6.38300701551696
7.444051542545081,-1.9314030944394696,6.430190958318747
7.3585320102306015,-1.9169685167993153,6.4654257208006
7.26030011500451,-1.9263085376252975,6.488098524484575
7.137799163310795,-1.9107418362486606,6.523026897727456
7.052664854114849,-1.8728156910764904,6.52241411924951
6.967145321800369,-1.859230206238698,6.497290201653755
6.9297786793026015,-1.8946090730037821,6.484115464377931
6.942105819095679,-1.8954581658061442,6.459910714499093
6.9297786793026015,-1.8946090730037821,6.484115464377931
6.917836762628057,-1.8566829278316122,6.569291672812324
6.893567706160434,-1.868004165196439,6.580934463893284
6.917451539509523,-1.891212701794334,6.653242324290827
6.991029155149458,-1.8909296708602135,6.751286880762071
7.06422154767086,-1.9039490938297643,6.78835997867776
7.112759660606105,-1.9534795073008822,6.7761044091188545
7.14974107998534,-1.9421582699360551,6.7767171875968
7.174395359571496,-1.9195157952064015,6.729226855556041
7.17478058269003,-1.8728156910764904,6.669480953956376
7.138954832666396,-1.8122470711746665,6.645888982555483
7.077704356819539,-1.7862082252355647,6.681736523515282
7.041493383677372,-1.7488481419316357,6.706247662633093
7.041108160558839,-1.7839439777625992,6.753737994673852
7.076933910582472,-1.8422483501914577,6.886404535149004
7.125857246636251,-1.8657399177234737,6.971274354344424
7.100817743931561,-1.9011187844885578,6.982610756186412
6.991029155149458,-1.874796907615335,6.969436018910589
6.880855343248822,-1.8479089688738712,6.980466031513604
6.783008671141264,-1.8331913602995962,7.003445224436551
6.783008671141264,-1.8317762056289928,7.088315043631972
6.831161560957976,-1.9039490938297643,7.136111764911703
6.916295870153922,-1.9659328684021917,7.136111764911703
6.964448759970633,-2.0273505811063774,7.123549806113825
6.927467340591399,-2.063295509739703,7.086170318959164
6.829235445365307,-2.1105616757378556,7.01141134464984
6.694022130759981,-2.156978748933646,6.9360395918625715
6.619674068882978,-2.2401898435651235,6.897128158513047
6.643172679113533,-2.3256651856695667,6.847493101799479
6.7275365420724125,-2.460953972179248,6.785602475527006
6.873536103996682,-2.5492596236248977,6.749754934567208
7.007593749246407,-2.601054284568981,6.714520172085354
7.092728058442353,-2.6522828836448227,6.654161492007745
7.116997114909976,-2.6902090288169926,6.581240853132257
7.0434194992700405,-2.7267200193185595,6.470634337863134
6.994110940097728,-2.7502115868505754,6.445510420267379
6.968686214274504,-2.821535382248985,6.455927654392448
6.980628130949048,-2.8580463727505516,6.4433656955945695
6.967915768037437,-2.8951234251203597,6.3698322782411365
6.955588628244358,-2.9310683537536852,6.356963930204286
6.893952929278968,-2.968428437057614,6.222152665056326
6.783393894259798,-3.00465639662506,6.074779441110487
6.550333907546913,-3.0239025001452657,6.046898020363977
6.281062947691862,-3.0287140260253174,6.091630849253982
6.060330100772056,-3.0598474287785913,6.08795417838631
5.92511678616673,-3.1045663163696573,6.09714585555549
5.863095864082806,-3.1373979047276555,6.192739298114953
5.899692060343506,-3.1481530802242412,6.301813867189211
6.022578235155755,-3.1023020688966922,6.340725300538736
6.121195353500379,-3.0561680266350226,6.35512559477045
6.170889135791226,-2.9721078392011826,6.417628999520868
6.159717665353749,-2.8985197963298077,6.479519625793341
6.099237635743959,-2.8113462686206407,6.565002223466707
6.074968579276336,-2.7737031543825914,6.613718112463356
6.014103326548013,-2.735777009210421,6.649872042662127
5.977507130287313,-2.7207763697020253,6.758333833258441
5.977507130287313,-2.7077569467324745,6.8070497222550905
5.990219493198924,-2.6842653792004585,6.7954069311741305
5.990604716317458,-2.6471883268306504,6.844735598648725
6.0025466329920025,-2.6463392340282885,6.905400667965307
5.966335659849835,-2.620866449957428,6.941554598164079
5.905470407121512,-2.583223335719379,6.953503778484012
5.8688742108608105,-2.5687887580792244,7.038067208440459
5.893528490446967,-2.531994736643537,7.111600625793892
5.906240853358579,-2.5087862000456416,7.075753084834094
6.016414665259215,-2.4994461792196594,7.065642239947997
6.163184673420552,-2.5269001798293647,7.06717418614286
6.334223738049512,-2.5546372113731906,7.080961701896629
6.493706109122461,-2.536806262523588,6.938490705774353
6.616592283934708,-2.529447458236451,6.843510041692834
6.702111816249189,-2.5435990049424846,6.8444292094097525
6.7510351523029675,-2.5331268603800194,6.8211436272478325
6.836554684617448,-2.546712345217812,6.846267544843588
6.94634327339955,-2.5979409442936534,6.798470823563857
7.019535665920952,-2.6253949449033587,6.7142137828463815
7.06845900197473,-2.65115075990834,6.6780598526476105
7.153978534289211,-2.653981069249547,6.642825090165757
7.191345176786979,-2.6205834190233075,6.547231647606294
7.2036723165800565,-2.610394305394963,6.462974606888818
7.215999456373135,-2.6106773363290836,6.462974606888818
7.215999456373135,-2.6109603672632047,6.451025426568886
7.215999456373135,-2.6219985736939107,6.49912853708759
7.2036723165800565,-2.597374882425412,6.511690495885468
7.08194181112341,-2.558882675385001,6.498515758609645
6.971767999222774,-2.5322777675776575,6.497290201653755
6.837325130854515,-2.5053898288361935,6.483809075138958
6.727921765190946,-2.4544442606944727,6.507401046539851
6.666671289344089,-2.4292545075577325,6.4948390877419735
6.666671289344089,-2.4278393528871294,6.567759726617461
6.776845101244725,-2.429537538491853,6.605445603011095
6.850807940003194,-2.3941586717267693,6.655387048963635
6.912058415850051,-2.3938756407926487,6.753125216195906
6.949039835229286,-2.3593458668299268,6.717890453714054
6.900116499175507,-2.3463264438603755,6.705328494916175
6.826924106654105,-2.3211366907236357,6.680817355798364
6.741404574339625,-2.3185894123165496,6.715745729041245
6.66782695869969,-2.3273633712742905,6.787134421721869
6.606191259734299,-2.3381185467708763,6.786215254004952
6.630845539320456,-2.3517040316086684,6.737805754247275
6.630460316201922,-2.363308299907616,6.749754934567208
6.642787455995,-2.3627422380393748,6.798470823563857
6.618518399527377,-2.3386846086391175,6.774266073685019
6.606191259734299,-2.3386846086391175,6.762010504126113
6.5938641199412205,-2.337269453968514,6.810113614644817
6.594249343059754,-2.3378355158367556,6.785908864765979
6.606191259734299,-2.3514210006745477,6.713294615129464
6.5938641199412205,-2.3522700934769096,6.652629545812881
6.605806036615765,-2.388498053044356,6.664272336893842
6.630460316201922,-2.3887810839784764,6.6768342956917195
6.630075093083388,-2.4009514141456654,6.664272336893842
6.642402232876466,-2.3879319911761145,6.737499365008302
6.61774795329031,-2.397838073870338,6.821756405725777
6.61774795329031,-2.4207635795341127,6.8818086965644145
6.519130834945685,-2.4544442606944727,6.879663971891606
6.445938442424283,-2.440292713988439,6.903255943292499
6.31111035093749,-2.4233108579411984,6.998236607374016
6.213648901948466,-2.396988981067976,7.0095730092160045
6.128129369633986,-2.357930712159323,7.0573697304957355
6.1161874529594416,-2.3205706288553944,7.118647578290263
6.177437928806299,-2.3089663605564468,7.167976245764858
6.263342684239312,-2.2987772469281027,7.169508191959721
6.349632662790859,-2.2650965657677427,7.1590909578346515
6.435922641342406,-2.2073582552071254,7.137030932628622
6.509885480100876,-2.1615072438795764,7.102715337863686
6.571521179066266,-2.1275435317850957,7.080042534179711
6.596175458652423,-2.1283926245874576,7.056144173539845
6.595790235533889,-2.1532993467900767,7.019377464863129
6.583077872622278,-2.202263698392953,6.945537658270723
6.5699802865921315,-2.2747196175278455,6.920107351435994
6.544940783887442,-2.3341561136931865,6.918575405241131
6.495247001596596,-2.393592609858528,6.892532319928457
6.409727469282116,-2.3921774551879245,6.867102013093728
6.324207936967636,-2.364723454578219,6.939103484252298
6.300324103618547,-2.314910010172981,7.000074942807853
6.324593160086169,-2.3033057418740333,7.012943290844703
6.398170775726105,-2.3290615568790147,7.013249680083676
6.471363168247507,-2.343213103585048,6.989964097921756
6.5445555607689085,-2.36925194952415,6.966372126520862
6.61774795329031,-2.396422919199735,6.894370655362293
6.678998429137167,-2.3984041357385792,6.858829503641466
6.727921765190946,-2.412555682444613,6.810726393122763
6.715594625397868,-2.424726012611802,6.786215254004952
6.665900843107021,-2.4847285706453843,6.735967418813439
6.604265144141631,-2.5203904683445892,6.6740767925409665
6.554571361850784,-2.615771893143256,6.65937010907028
6.52914663602756,-2.699266018708854,6.657531773636443
6.516049049997415,-2.7476643084434893,6.632407856040687
6.516049049997415,-2.784175298945056,6.607590327683904
6.540703329583572,-2.7615328242154025,6.559793606404172
6.602339028548962,-2.7267200193185595,6.573274732918969
6.652032810839809,-2.666717461284977,6.623522568110481
6.713283286686666,-2.644074986555323,6.624748125066372
6.798802819001145,-2.6590756260637187,6.577257793025613
6.872380434641081,-2.6859635648051827,6.5052563218670425
6.945572827162483,-2.687378719475786,6.518431059142866
6.945958050281016,-2.6757744511768387,6.5064818788229335
6.922074216931927,-2.6146397694067733,6.53160579641869
6.897805160464305,-2.5653923868697763,6.556116935536501
6.91090274649445,-2.505955890704435,6.545393312172458
6.959826082548229,-2.518692282739865,6.557955270970337
7.008749418602008,-2.532560798511778,6.534056910330471
6.99642227880893,-2.5201074374104686,6.534363299569443
6.99642227880893,-2.5317117057094163,6.558261660209309
6.984095139015852,-2.530862612907054,6.582160020849175
6.959440859429695,-2.5305795819729333,6.569904451290269
6.8862484669082935,-2.516994097135141,6.568985283573351
6.776459878126191,-2.4666145908616617,6.556423324775473
6.642402232876466,-2.426707229150647,6.591351698018354
6.544170337650375,-2.4354811881083873,6.650484821140073
6.470592722010439,-2.4329339097013016,6.6857195836219265
6.457880359098827,-2.4688788383346267,6.685106805143981
6.494091332240995,-2.542183850271881,6.6599828875482245
6.481378969329382,-2.5673736034086208,6.586755859433764
6.493320886003927,-2.5917142637429986,6.5864494701947915
6.4809937462108484,-2.6030355011078257,6.610347830834657
6.51758994247155,-2.6143567384726527,6.683268469710145
6.541473775820639,-2.6630380591414085,6.6826556912322
6.565357609169728,-2.7363430710786623,6.645276204077538
6.626222861898051,-2.762664947951885,6.597173093558834
6.638550001691129,-2.775684370921436,6.572968343679996
6.638550001691129,-2.7759674018555565,6.548763593801158
6.6142809452235065,-2.751343710587058,6.5490699830401296
6.565357609169728,-2.7502115868505754,6.548150815323212
6.516434273115949,-2.7250218337138357,6.560099995643145
6.4551837972690915,-2.735777009210421,6.546925258367321
6.442471434357479,-2.7717219378437465,6.534056910330471
6.454798574150558,-2.7598346386106782,6.5466188691283485
6.50410713332287,-2.736626102012783,6.559793606404172
6.541473775820639,-2.7015302661818197,6.561019163360063
6.541858998939173,-2.6644532138120116,6.610041441595685
6.468666606417771,-2.6021864083054638,6.634246191474523
6.383917520340359,-2.529447458236451,6.573887511396913
6.2745141546767895,-2.479917044765333,6.5129160528413585
6.213263678829932,-2.4790679519629713,6.487792135245602
6.2980127649073445,-2.5399196027989155,6.548457204562185
6.481378969329382,-2.5679396652768625,6.562551109554926
6.676687090425965,-2.631338594519893,6.612492555507466
6.811129958794224,-2.6692647396920632,6.686332362099872
6.860053294848003,-2.6698308015603045,6.711149890456655
6.823457098587302,-2.657377440458995,6.686638751338844
6.787246125445135,-2.608696119790239,6.674995960257884
6.738322789391356,-2.595959727754809,6.662434001460006
6.701726593130655,-2.582657273851137,6.6740767925409665
6.701726593130655,-2.593978511215964,6.722486292298643
6.713668509805199,-2.618319171550342,6.709924333500765
6.725610426479744,-2.64265983188472,6.709924333500765
6.7498794829473665,-2.643225893752961,6.7102307227397375
6.786475679208067,-2.6559622857883913,6.722486292298643
6.872765657759614,-2.6222816046280313,6.70011987785364
6.897419937345771,-2.5985070061618947,6.712988225890491
6.8854780206712265,-2.5736002839592755,6.749448545328235
6.849267047529059,-2.524069870488158,6.786215254004952
6.849652270647593,-2.4878419109207117,6.786828032482897
6.874691773352283,-2.4397266521201977,6.824513908876531
6.912443638968585,-2.3567985884228406,6.802147494431528
6.986406477727054,-2.310664546161171,6.792036649545431
7.109292652539302,-2.2532092665346743,6.806743333016118
7.195967854209383,-2.1708472647055586,6.809500836166872
7.2941997494354744,-2.1363174907428366,6.847799491038452
7.30729733546562,-2.0516912414407553,6.898047326229964
7.332722061288844,-1.981216538844708,6.839220592347218
7.26030011500451,-1.896590289542627,6.779168301508581
7.19982008539472,-1.8108319165040632,6.792036649545431
7.2005905316317875,-1.7372438736326883,6.877825636457771
7.213302894543399,-1.701015914065242,6.902949554053526
7.250284313922633,-1.689977707634536,6.891613152211539
7.287265733301868,-1.6545988408694519,6.892838709167429
7.275709039745857,-1.6064835820689376,6.8934514876453745
7.251825206396768,-1.5592174160707852,6.821450016486804
7.215614233254601,-1.498931827103082,6.785602475527006
7.143192286970267,-1.412324361262156,6.822369184203723
7.106596090709566,-1.3871346081254163,6.846573934082561
7.082712257360477,-1.3387363183907812,6.834931143001601
7.070385117567399,-1.3395854111931433,6.774266073685019
7.034174144425232,-1.3149617199246448,6.762316893365086
7.0214617815136195,-1.3387363183907812,6.749448545328235
6.972538445459841,-1.3384532874566606,6.712375447412546
6.8619794104406715,-1.3602466693839523,6.6985879316587775
6.775689431889124,-1.406380711645622,6.696443206985968
6.713668509805199,-1.500630012707806,6.718196842953026
6.663974727514353,-1.5595004470049059,6.728307687839123
6.613895722104973,-1.6421454797681423,6.73841853272522
6.576529079607205,-1.7250735434654993,6.76047855793125
6.551104353783981,-1.7845100396308406,6.758946611736387
6.5017957946116685,-1.8314931746948722,6.757414665541524
6.488698208581523,-1.891212701794334,6.756189108585633
6.512582041930612,-1.9396109915289692,6.767831899666593
6.487542539225922,-1.9996135495625518,6.742095203592892
6.536080652161167,-2.037539694734722,6.705941273394121
6.597331128008024,-2.0514082105066347,6.682349301993227
6.670138297410892,-2.101221654911873,6.682349301993227
6.743715913050828,-2.103202871450718,6.65937010907028
6.8172935286907625,-2.105750149857804,6.6238289573494535
6.8415625851583854,-2.118486541893234,6.611879777029521
6.841947808276919,-2.094428912492977,6.612492555507466
6.8415625851583854,-2.118486541893234,6.611879777029521
6.853889724951464,-2.1068822735942865,6.6121861662684935
6.8415625851583854,-2.117920480024993,6.6483400964672645
6.828850222246774,-2.1532993467900767,6.659676498309252
6.779926886192994,-2.152167223053594,6.658757330592334
6.694792576997048,-2.113391985079062,6.706860441111038
6.621214961357113,-2.110844706671976,6.754350773151797
6.5476373457171775,-2.096127098097701,6.801841105192556
6.486772092988854,-2.0828246441940292,6.789279146394678
6.474444953195776,-2.0825416132599086,6.800921937475638
6.437848756935075,-2.0689561284221165,6.837075867674409
6.438233980053609,-2.0318790760523084,6.886098145910031
6.450561119846687,-2.007821446652051,6.898966493946882
6.5241387354866225,-2.009236601322655,6.924090411542639
6.5487930150727784,-1.9970662711554656,6.9489079398994225
6.597331128008024,-2.0222560242922056,6.949214329138394
6.634312547387259,-2.023671178962809,6.925315968498529
6.634312547387259,-2.012632972532103,6.877212857979825
6.6832358834410375,-2.026218457369895,6.85331449733996
6.707890163027194,-2.016029343741551,6.781313026181389
6.707890163027194,-2.016595405609792,6.757108276302551
6.732159219494816,-2.030180890447584,6.696749596224941
6.781467778667129,-2.01999177681924,6.6612084445041155
6.866987310981609,-2.0216899624239644,6.674689571018911
7.026469682054558,-2.0021608279696377,6.6406803654929485
7.16129777354135,-1.9936698999460176,6.618620340286919
7.284183948353599,-1.9851789719223973,6.572049175963078
7.308453004821221,-1.998481425826069,6.535895245764307
7.320780144614299,-1.975272889228174,6.512303274363413
7.309223451058289,-1.9398940224630898,6.4522509835247766
7.26030011500451,-1.9401770533972105,6.390973135730249
7.259914891885976,-1.9625364971927437,6.475230176447725
7.308838227939755,-1.9741407654916912,6.548457204562185
7.357761563993534,-1.9755559201622945,6.537120802720197
7.431339179633469,-1.9531964763667615,6.538346359676088
7.480647738805782,-1.9178176096016772,6.564083055749789
7.480647738805782,-1.917251547733436,6.588287805628627
7.443666319426548,-1.9280067232300215,6.611573387790548
7.394742983372768,-1.950932228893796,6.61065422007363
7.320780144614299,-1.9738577345575705,6.584917523999929
7.2714715854419865,-2.008670539454413,6.583691967044038
7.234490166062752,-2.043483344351256,6.606671159966986
7.197123523564984,-2.078013118313978,6.6419059224488395
7.184796383771905,-2.0890513247446845,6.677753463408638
7.123545907925049,-2.086787077271719,6.725243795449397
7.037641152492035,-2.084239798864633,6.748529377611317
6.890871144330698,-2.068673097487996,6.758640222497414
6.6832358834410375,-2.0395209112735664,6.780700247703444
6.511811595693544,-2.0117838797297405,6.766606342710703
6.41435014670452,-1.9860280647247595,6.741482425114946
6.402023006911442,-1.9721595489528465,6.826352244310367
6.463273482758299,-1.9461207030137446,7.008960230738059
6.63546821674286,-1.8866842068484033,7.1820701507576
6.770296308229653,-1.852437463819802,7.24487994474699
6.868913426574277,-1.804888266887529,7.3318944886152195
6.9305491255396685,-1.744319646985705,7.430858212803381
6.980242907830515,-1.6953552953828288,7.54115833883353
7.01722432720975,-1.6602594595518654,7.542383895789421
7.041878606795906,-1.6619576451565894,7.482331604950784
7.041108160558839,-1.7349796261597228,7.432390158998245
7.0888758272570165,-1.8329083293654755,7.395010671843583
7.136643493955194,-1.9430073627384172,7.345375615130015
7.147814964392671,-2.065276726278548,7.258667460500758
7.122390238569447,-2.137449614479319,7.220675194868152
7.122005015450914,-2.1985842962493845,7.1590909578346515
7.084638372953146,-2.2591529161512085,7.096893942323206
7.034944590662299,-2.320004566987153,6.998236607374016
6.960211305666763,-2.42812238382125,6.910609285027842
6.873536103996682,-2.5356741387871056,6.834931143001601
6.7745337625335225,-2.6177531096821007,6.8199180702919415
6.638935224809663,-2.7233236481091114,6.791730260306459
6.502951463967269,-2.8170068873030543,6.751899659240016
6.392007205829565,-2.900217981934532,6.664272336893842
6.281448170810396,-2.936162910567857,6.541103862826842
6.1832162755843045,-2.996731530469681,6.393117860403057
6.096541073914223,-3.081640810705883,6.245438247218246
6.009865872244142,-3.165417967205602,6.170066494430977
5.9359030334856735,-3.2364587316698907,6.131461450320425
5.910093084543916,-3.3437274557016257,6.14126590596755
5.885053581839226,-3.379672384334951,6.11583559913282
5.884668358720693,-3.4286367359378276,6.078762501217131
5.933591694774472,-3.4300518906084307,6.055170529816238
6.007169310414406,-3.4212779316506903,5.983781837135614
6.11811356855211,-3.3632565901559524,6.010744090165206
6.204403547103658,-3.303820093990611,6.073247494915623
6.291078748773739,-3.232779329526322,6.124414497824054
6.315733028359895,-3.1959853080906346,6.197947915177487
6.279136832099193,-3.1690973693491706,6.294766914692841
6.254867775631571,-3.143058523410069,6.367381164329355
6.182445829347237,-3.069470480538694,6.367687553568328
6.133522493293458,-3.031261304432403,6.4160970533260056
6.133907716411992,-3.0038073038226982,6.5980922612757515
6.219427248726471,-3.00465639662506,6.6599828875482245
6.281062947691862,-2.983995138434251,6.552133875429856
6.3423134235387195,-2.9862593859072164,6.504643543389098
6.48946865481859,-2.9783345197518374,6.470634337863134
6.660892942566083,-2.9964484995355605,6.363704493461684
6.820760536757566,-2.9551259831539425,6.197335136699542
6.99218482450506,-2.9613526637045973,6.078456111978158
7.175551028927097,-2.988523633380182,6.140959516728577
7.335033400000046,-2.9687114679917346,6.107256700441586
7.433265295226137,-2.934747755897254,6.109401425114395
7.507228133984607,-2.888896744569705,6.087035010669393
7.50761335710314,-2.841064516703311,6.0756986088274045
7.4960566635471295,-2.7804958968014875,6.088873346103228
7.399365660795173,-2.6947375237629236,6.052719415904457
7.253366098870903,-2.5951106349524466,6.06466859622439
7.058443200892855,-2.5065219525726765,6.063443039268499
6.874691773352283,-2.4980310245490562,6.290783854586197
6.874691773352283,-2.459255786574524,6.424675952017239
6.8380955770915826,-2.4485006110779386,6.3156013829429805
6.8380955770915826,-2.471992178609954,6.351448923902779
6.801114157712347,-2.4700109620711097,6.411501214741415
6.751805598540035,-2.4892570655913153,6.603913656816232
6.813056074386892,-2.4770867354241264,6.677753463408638
6.824612767942903,-2.55010871642726,6.640373976253976
6.823457098587302,-2.633885872926979,6.663046779937951
6.786475679208067,-2.6808690079910105,6.673770403301994
6.736396673798687,-2.749079463114093,6.816854177902215
6.73562622756162,-2.8082329283453134,6.864344509942974
6.6381647785725955,-2.783326206142694,6.790811092589541
6.539932883346504,-2.779080742130884,6.898353715468937
6.46751093706217,-2.6913411525534756,7.007734673782169
6.346165654724056,-2.581242119180534,6.959631563263464
6.188224176125242,-2.470577023939351,6.898966493946882
6.042609837319507,-2.370950135128874,6.910915674266815
5.933206471655938,-2.2591529161512085,6.97188713282237
5.922420224336994,-2.1261283771144925,6.998236607374016
5.899306837224973,-2.018293591214516,6.951359053811204
5.960942536190363,-1.9823486625811908,7.025505249642581
6.120424907263312,-1.9478188886184686,7.137337321867594
6.304561557922417,-1.916402454931074,7.116196464378482
6.414735369823053,-1.9203648880087634,7.033164980616897
6.537236321516768,-1.9214970117452461,7.119566746007181
6.684391552796638,-1.8997036298179544,7.1823765399965716
6.8196048674019645,-1.8314931746948722,7.137030932628622
6.954818182007291,-1.7995106791392361,7.091378936021699
7.150896749340941,-1.7791324518825478,7.130596758610197
7.297666757502277,-1.8063034215581324,7.144384274363965
7.420167709195992,-1.809982823701701,7.097506720801151
7.456763905456693,-1.811964040240546,7.04970999952142
7.456763905456693,-1.8122470711746665,7.025505249642581
7.371244373142213,-1.8102658546358217,7.024279692686691
7.19982008539472,-1.806586452492253,7.009879398454977
6.991799601386526,-1.7904536892473748,6.982917145425385
6.759124837792175,-1.7966803697980296,7.003751613675524
6.489083431700056,-1.8496071544785953,7.047565274848611
6.268350584780251,-1.8552677731610088,7.129064812415333
6.121580576618913,-1.839418040850251,7.1514312268603355
5.986752485132121,-1.8363047005749236,7.1495928914265
5.9135600926107195,-1.834323484036079,7.160622904029514
5.925502009285264,-1.8580980825022155,7.184827653908353
5.961327759308897,-1.918100640535798,7.244573555508017
6.106942098114633,-2.0293317976452223,7.256829125066923
6.264883576713447,-2.1527332849218355,7.281033874945761
6.447094111779884,-2.276983865000811,7.281340264184734
6.605806036615765,-2.366704671117064,7.17287847358842
6.7148241791608,-2.467180652729903,7.075753084834094
6.811900405031291,-2.5673736034086208,6.990576876399701
6.872380434641081,-2.6556792548542707,6.83248002908982
6.859282848610936,-2.730682452396249,6.673770403301994
6.821916206113167,-2.817289918237175,6.502192429477317
6.7722224238223205,-2.8900288683061874,6.403535094528127
6.673605305477695,-2.9375780652384607,6.316520550659898
6.538777213990903,-2.9712587463988207,6.277609117310373
6.392007205829565,-2.9556920450221837,6.288026351435443
6.269891477254385,-2.9041804150122212,6.311311933597363
6.172815251383895,-2.805968680872348,6.299669142516403
6.112720444892639,-2.709172101403078,6.264434380034549
6.12543280780425,-2.683133255463976,6.386070907906687
6.23599184282342,-2.6350179966634615,6.521494951532593
6.358878017635668,-2.575864531432241,6.6210714541987
6.530687528501695,-2.5305795819729333,6.684800415905008
6.702497039367723,-2.498314055483177,6.699813488614668
6.837710353973049,-2.4640673124545756,6.762929671843031
6.96098175190383,-2.3941586717267693,6.790198314111596
7.010290311076143,-2.347175536662738,6.803679440626392
7.083867926716078,-2.347741598530979,6.85331449733996
7.144733179444402,-2.3740634754042014,6.805211386821255
7.169387459030558,-2.3896301767808383,6.6599828875482245
7.119693676739712,-2.438311497449594,6.561631941838008
7.058057977774321,-2.473124302346437,6.548150815323212
6.9971927250459975,-2.447085456407335,6.5839983562830104
7.009134641720542,-2.4838794778430224,6.559180827926227
6.984480362134385,-2.508503169111521,6.497902980131699
6.947498942755151,-2.5082201381774003,6.473391841013888
6.923229886287528,-2.4952007152078495,6.497290201653755
6.898960829819906,-2.494634653339608,6.496983812414782
6.8619794104406715,-2.4923704058666427,6.569291672812324
6.8615941873221376,-2.5393535409306742,6.616782004853083
6.799573265238213,-2.6101112744608423,6.626586460500207
6.700956146893588,-2.668415646889701,6.599930596709588
6.566128055406795,-2.6774726367815624,6.585836691716846
6.480223299973781,-2.6998320805770955,6.572049175963078
6.4551837972690915,-2.723040617174991,6.583385577805065
6.516434273115949,-2.7363430710786623,6.5839983562830104
6.589241442518817,-2.81106323768652,6.547538036845267
6.687088114626374,-2.826629939063157,6.475842954925669
6.723684310887076,-2.8407814857691904,6.403535094528127
6.73562622756162,-2.854366970606983,6.343176414450517
6.699030031300919,-2.8532348468705,6.354512816292505
6.73562622756162,-2.864556084235327,6.427433455167993
6.796876703408477,-2.8781415690731196,6.428046233645938
6.833087676550644,-2.9030482912757387,6.428352622884911
6.869683872811345,-2.927671982544237,6.440301803204844
6.906280069072046,-2.9404083745796674,6.4406081924438165
6.94326148845128,-2.929370168148961,6.429271790601828
6.979857684711981,-2.9186149926523757,6.417935388759841
7.041108160558839,-2.907010724353428,6.467264056234436
7.102743859524229,-2.896821610725084,6.444284863311488
7.07886002617514,-2.8385172382962254,6.323873892395241
6.981398577186116,-2.8155917326324507,6.1415722952065215
6.9082061846647145,-2.779646803999125,6.0563960867721285
6.81074473567569,-2.7657782882272124,6.030965779937399
6.761821399621911,-2.7541740199282647,5.945789571503006
6.713668509805199,-2.6941714618946824,5.88573728066437
6.640476117283797,-2.6443580174894437,5.88573728066437
6.56766894788093,-2.581242119180534,5.9583515303008845
6.494861778478062,-2.5175601590033825,6.055170529816238
6.507574141389673,-2.442839992395525,6.214186544843037
6.606191259734299,-2.40717809469632,6.312843879792227
6.741019351221092,-2.3732143826018395,6.364010882700657
6.900501722294041,-2.3403827942438413,6.390973135730249
6.986406477727054,-2.341797948914445,6.416403442564977
6.9983483944015985,-2.353119186279272,6.464812942322655
6.9983483944015985,-2.364157392709978,6.524865233161291
6.98602125460852,-2.3630252689734954,6.561019163360063
6.973694114815442,-2.362176176171133,6.597173093558834
6.973694114815442,-2.3737804444700807,6.621377843437672
6.985636031489986,-2.385667743703149,6.645582593316511
6.985636031489986,-2.3740634754042014,6.621377843437672
6.888174582500962,-2.3488737222674616,6.560099995643145
6.680539321611302,-2.2834935764855864,6.594721979647053
6.534924982805566,-2.1459405425029394,6.691847368401379
6.438233980053609,-2.034709385393515,6.740869646637001
6.427447732734666,-1.9135721455898673,6.779168301508581
6.5017957946116685,-1.8173416279888386,6.866795623854755
6.600798136074827,-1.7106389658253451,6.918575405241131
6.638550001691129,-1.6401642632292976,6.871697851678317
6.615051391460574,-1.5184609615574083,6.922252076108802
6.616207060816175,-1.4329856194529653,6.996398271940181
6.628919423727787,-1.359680607515711,7.0702380785325865
6.715209402279334,-1.312131410583438,7.157252622400816
6.874691773352283,-1.2790167912913193,7.196164055750341
7.0214617815136195,-1.3064707919010246,7.185746821625271
7.155904649881879,-1.34666118454616,7.1385628788234845
7.253366098870903,-1.3738321542217447,7.091072546782726
7.400521330150774,-1.3775115563653133,7.068706132337724
7.510309918932876,-1.4168528562080869,7.033164980616897
7.6081565910404345,-1.4445898877519128,6.9614698986973
7.705618040029458,-1.4969506105642372,6.853008108100987
7.815406628811561,-1.536857972275252,6.781313026181389
7.9251952175936635,-1.5773313958545083,6.685106805143981
8.072350448873534,-1.582708983602801,6.566227780422597
8.194851400567249,-1.587803540416973,6.446735977223269
8.25648709953264,-1.5677083440944053,6.314988604465035
8.306180881823487,-1.522989456503339,6.207445981585639
8.367431357670343,-1.5017621364442886,6.136057288905015
8.441394196428812,-1.455628094182619,6.113690874460012
8.515742258305815,-1.3998710001608465,5.982556280179723
8.504185564749804,-1.3661903190004865,5.837940559384638
8.380914166819021,-1.4338347122553272,5.919746486190332
8.258027992006774,-1.4414765474765854,6.002471580712944
8.136297486550127,-1.3910970412031056,5.9776540523561605
8.039221260679637,-1.2917531833267497,6.0383191216727425
7.8924512525183,-1.2744882963453885,6.133606174993234
7.696757908303184,-1.2320336562272878,6.228280449835778
7.48873742429499,-1.213636645509444,6.3103927658804455
7.243350297789027,-1.229203346886081,6.464200163844709
7.083867926716078,-1.2348639655684945,6.606977549205959
6.96098175190383,-1.265431306453527,6.750061323806181
6.8627498566777385,-1.2727901107406645,6.869553127005509
6.752576044777102,-1.2790167912913193,7.037148040723542
6.629689869964855,-1.2976968329432836,7.180538204562736
6.494861778478062,-1.2926022761291116,7.275518868644254
6.36003368699127,-1.2883568121173015,7.346294782846933
6.200936539036854,-1.295715616404439,7.392253168692829
6.078050364224606,-1.315527781792886,7.462722693656535
5.979048022761447,-1.3851533915865715,7.484476329623592
5.880430904416822,-1.454779001380257,7.493974396031745
5.75715950648604,-1.5244046111739424,7.46670575376318
5.658542388141415,-1.5934641590993865,7.512357750370103
5.62156096876218,-1.6158236028949198,7.559848082410862
5.621175745643646,-1.6395982013610562,7.571490873491822
5.694368138165048,-1.6531836861988485,7.57241004120874
5.80415672694715,-1.6919589241733806,7.561073639366752
5.878119565705619,-1.6582782430130205,7.526451655362844
5.93975526467101,-1.6248805927867813,7.467318532241125
5.940525710908077,-1.5778974577227496,7.407879019880434
5.940525710908077,-1.5906338497581798,7.371112311203717
5.940140487789544,-1.6030872108594894,7.346907561324878
6.001005740517868,-1.6529006552647278,7.3346519917659725
6.098852412625425,-1.6667691710366408,7.347826729041796
6.208641001407528,-1.7044122852746901,7.397155396516391
6.269121031017318,-1.7545087606140493,7.372950646637553
6.293004864366407,-1.815360411449994,7.347826729041796
6.231754388519549,-1.8382859171137684,7.3346519917659725
6.121580576618913,-1.8241343704077346,7.321170865251177
5.950926735108488,-1.7479990491292738,7.320251697534259
5.853080063000929,-1.734130533357361,7.307076960258436
5.852694839882396,-1.7692263691883243,7.354567292299194
5.962483428664498,-1.7946991532591847,7.4042023490127615
6.121580576618913,-1.8102658546358217,7.418296254005503
6.2313691654010155,-1.836870762443165,7.419215421722421
6.305717227278018,-1.791868843917978,7.336490327199809
6.3426986466572535,-1.7836609468284785,7.191874606404724
6.367738149361943,-1.7264886981361027,7.060127233646489
6.417046708534256,-1.7038462234064489,7.049097221043475
6.4786824074996465,-1.6687503875754854,7.074833917117176
6.552260023139582,-1.669316449443727,7.136418154150676
6.649721472128606,-1.69592135725107,7.113132571988756
6.747182921117631,-1.7593202864941007,7.064723072231079
6.783393894259798,-1.796114307929788,7.064723072231079
6.7957210340528755,-1.7952652151274262,7.125388141547662
6.7957210340528755,-1.7949821841933054,7.137643711106567
6.7714519775852535,-1.7703584929248068,7.137643711106567
6.783393894259798,-1.7825288230919958,7.1495928914265
6.845029593225188,-1.75903725555998,7.187278767820134
6.955588628244358,-1.7372438736326883,7.201372672812876
7.016839104091216,-1.714884429837155,7.19034266020986
7.078474803056607,-1.6913928623051393,7.240284106162401
7.103129082642763,-1.6676182638390027,7.253152454199252
7.054205746588984,-1.6659200782342787,7.288693605920077
6.980628130949048,-1.6772413155991057,7.226802979647604
6.9552034051258245,-1.7508293584704806,7.128452033937387
6.9293934561840675,-1.8711175054717664,7.0895406005878625
6.892026813686299,-1.9540455691691234,7.09965144547396
6.866602087863075,-2.0361245400641184,7.182682929235544
6.853119278714396,-2.1199016965638378,7.180844593801709
6.803040273305016,-2.2147170594942627,7.190649049448833
6.7294626576650804,-2.248114709720502,7.237220213772674
6.581922203266676,-2.2820784218149828,7.174104030544311
6.446323665542817,-2.3644404236440986,7.098119499279097
6.31111035093749,-2.434915126240146,7.0224413572528555
6.212108009474331,-2.5184092518057444,6.946763215226613
6.113490891129706,-2.6146397694067733,6.822675573442695
6.051084745927247,-2.723040617174991,6.7230990707765885
5.952082404464089,-2.818705072907778,6.635165359191441
5.828425783414773,-2.912388312101721,6.607590327683904
5.718251971514137,-2.934747755897254,6.569291672812324
5.644674355874201,-2.946068993262081,6.519656616098756
5.607692936494967,-2.9579562924951492,6.482583518183068
5.644289132755668,-2.984561200302492,6.386070907906687
5.7544629446563045,-2.989938788050785,6.242067965589547
5.839982476970784,-3.0165436958581284,6.206526813868721
5.962483428664498,-3.0309782734982824,6.232263509942422
6.096926297032757,-3.0465449748749194,6.197641525938515
6.232139611638083,-3.0049394275591808,6.030659390698427
6.403563899385577,-3.00890186063687,6.020854935051303
6.623526300068315,-3.0482431604796436,6.120125048478437
6.7949505878158085,-3.07626322295759,6.11001420359234
6.880855343248822,-3.06777229493397,6.0266763305917825
6.881240566367356,-3.019374005199335,6.051800248187539
6.869683872811345,-2.943521714854995,6.234408234615231
6.821916206113167,-2.833422681482053,6.272094111008865
6.676301867307431,-2.723040617174991,6.223684611251189
6.5911675581114855,-2.636433151334065,6.248195750369
6.641631786639399,-2.5158619733986587,6.335823072715174
6.8874041362638945,-2.422178734204716,6.498209369370672
7.170157905267626,-2.331608835286101,6.540184695109923
7.379334058631421,-2.2274534515296933,6.581240853132257
7.491048763006192,-2.0845228297987535,6.657838162875416
7.419012039840391,-1.9498001051573133,6.707779608827956
7.333877730644445,-1.8736647838788525,6.804904997582282
7.2248595880994095,-1.7873403489720472,6.792649428023377
7.126627692873318,-1.7845100396308406,6.827577801266258
7.114685776198773,-1.7842270086967198,6.827577801266258
7.150896749340941,-1.8210210301324072,6.827271412027285
7.223703918743809,-1.8832878356389553,6.803066662148447
7.2475877520928975,-1.9449885792772619,6.753737994673852
7.234490166062752,-2.016595405609792,6.7644616180378945
7.197508746683518,-2.038388787537084,6.836156699957491
7.184796383771905,-2.073484623368047,6.859442282119412
7.159756881067215,-2.135185367006354,6.749142156089262
7.1100630987763696,-2.1960370178422983,6.650484821140073
7.036485483136434,-2.2308498227391413,6.624748125066372
6.950965950821955,-2.1934897394352126,6.599930596709588
6.902427837886709,-2.1682999862984724,6.599930596709588
6.8411773620398515,-2.1552805633289216,6.5748066791138315
6.8169083055722295,-2.141412047557009,6.6354717484304135
6.854274948069997,-2.081409489523426,6.685413194382954
6.891641590567765,-2.023388148028688,6.614330890941302
6.941335372858612,-1.964800744665709,6.591964476496299
6.990258708912391,-1.9531964763667615,6.641293143970894
6.941335372858612,-1.964800744665709,6.591964476496299
6.979857684711981,-1.808284638096977,6.667949007761513
6.918607208865124,-1.7686603073200828,6.7767171875968
6.820760536757566,-1.7655469670447554,6.823594741159614
6.722528641531475,-1.7873403489720472,6.82206279496475
6.6605077194475495,-1.8569659587657328,6.880276750369552
6.63546821674286,-1.8779102478906624,7.000687721285797
6.598101574245091,-1.9367806821877624,7.023360524969773
6.536851098398234,-1.9588570950491748,7.058288898212654
6.425906840260531,-2.0024438589037583,7.1526567838162265
6.3650415875322075,-1.963951651863347,7.213015463893836
6.316118251478429,-1.9520643526302788,7.152044005338281
6.267580138543183,-1.9282897541641422,7.06717418614286
6.255252998750104,-1.927723692295901,7.091378936021699
6.267965361661717,-1.8804575262977485,7.068093353859778
6.268350584780251,-1.8702684126694045,6.9593251740244915
6.341928200420186,-1.8617774846457842,6.863731731465029
6.403178676267043,-1.8759290313518178,6.82788419050523
6.5010253483746006,-1.878476309758904,6.817160567141188
6.587315326926148,-1.832625298431355,6.8070497222550905
6.6366238860984605,-1.821304061066528,6.832173639850847
6.710201501738396,-1.7972464316662708,6.918575405241131
6.820760536757566,-1.7757360806730997,6.920413740674967
6.9058948459535126,-1.8029070503486844,6.848412269516397
6.979087238474913,-1.8527204947539226,6.848718658755369
7.015298211617081,-1.899986660752075,6.932975699472845
7.051123961640714,-1.9478188886184686,6.993027990311482
7.026084458936024,-2.0095196322567754,6.882727864281333
6.952506843296089,-2.044332437153618,6.856991168207631
6.829620668483841,-2.076314932709254,6.927154303932364
6.694407353878515,-2.1088634901331313,6.936652370340517
6.547252122598644,-2.118769572827355,6.8741489655900985
6.42475117090493,-2.141129016622888,6.811339171600708
6.313806912767226,-2.197452172512902,6.881502307325442
6.289537856299604,-2.1847157804774717,6.8934514876453745
6.204403547103658,-2.110844706671976,6.869246737766536
6.168577797080024,-2.036407570998239,6.955035724678875
6.21827157937087,-1.950932228893796,7.090153379065808
6.291849195010806,-1.9393279605948486,7.152044005338281
6.304176334803884,-1.9396109915289692,7.152350394577254
6.279522055217727,-1.9393279605948486,7.1397884357793755
6.21827157937087,-1.9376297749901243,7.151124837621363
6.206329662696326,-1.926025506691177,7.114664518183619
6.157406326642547,-1.9141382074581086,7.053693059628064
6.206329662696326,-1.9144212383922292,7.103021727102659
6.353484893976197,-1.892910887399058,7.141626771213211
6.513352488167679,-1.8617774846457842,7.07177002472745
6.648180579654472,-1.8665890105258356,6.989044930204837
6.709431055501328,-1.868853257998801,6.941248208925106
6.734085335087485,-1.8354556077725617,6.833399196806738
6.697489138826784,-1.8476259379397506,6.784070529332143
6.74602725176203,-1.8838538975071966,6.8327864183287925
6.806507281371819,-1.932818249110073,6.856684778968658
6.915910647035388,-2.00725538478381,6.856991168207631
7.135487824599593,-2.1097125829354932,6.797858045085912
7.343123085489253,-2.163771491352542,6.7270821308832325
7.551143569497448,-2.1816024402021443,6.681123745037337
7.735280220156553,-2.1623563366819383,6.647727317989319
7.870493534761879,-2.1026368095824766,6.796019709652076
7.981823016018116,-1.9696122705457604,6.969436018910589
8.130133916653588,-1.8654568867893528,6.936958759579489
8.302328650638149,-1.7980955244686327,6.90448150024839
8.339695293135916,-1.739225090171533,6.8818086965644145
8.315426236668294,-1.7154504917053965,6.833399196806738
8.230291927472349,-1.6540327790012106,6.809194446927899
8.096619505341156,-1.5660101584896813,6.845041987887698
7.97488899988451,-1.5026112292466507,6.8689403485275635
7.878197997132553,-1.404682526040898,6.845041987887698
7.818103190641297,-1.297413802009163,6.73719297576933
7.929047448779,-1.2167499857847714,6.679591798842473
8.076973126295938,-1.1595777370923954,6.706860441111038
8.248397414043431,-1.1256140249979147,6.806743333016118
8.456417898051626,-1.142878911979276,6.785296086288033
8.614744599768974,-1.2583555331005103,6.5916580872573265
8.775382640197524,-1.1437280047816378,6.4871793567676574
8.812749282695291,-1.1123115710942433,6.294460525453868
8.824691199369836,-1.142878911979276,5.967543207470063
8.775767863316057,-1.172880190996067,5.590990832772692
8.935250234389006,-1.161841984565361,5.72672126563757
9.144811610871335,-1.0483465799829712,5.634804493945779
9.488815855721922,-0.9238129689698753,5.64185144644215
9.991917248526926,-0.8270163895006053,5.662685914692289
10.27505624064919,-0.7013506547510266,5.656864519151809
10.156407520140812,-0.3755820495781325,5.576284149302006
9.638667648831529,0.4259615558516122,5.401948672326575
8.905202831143377,1.6446927581752284,5.401642283087602
8.958363621501027,2.07461674710453,5.954674859433213
10.100164944834894,1.3033574516256972,6.5980922612757515
11.240040152576091,0.2603884593910188,6.849331437233315
11.697299994275584,-0.48851139229228085,6.564083055749789
11.277792018192393,-0.7839956875142631,6.322954724678324
10.127130563132251,-0.7333331503066627,6.319890832288597
8.71027993316533,-0.39058268908652816,6.209284317019475
7.674029744309696,0.03990736171101483,6.105724754246723
7.175936252045631,0.3880354106794421,6.105111975768778
7.105825644472499,0.7030488403557507,6.158117314111045
7.304215550517351,0.9277754020475647,6.213267377126119
7.623950738900316,1.0574035698748327,6.462055439171901
7.979896900425448,1.1638232011042056,6.795713320413103
8.323515922157501,1.253544007220459,6.8870173136269495
8.655193027215011,1.3299623594330403,6.880889528847496
8.961830629567832,1.3828891441136062,6.8741489655900985
9.122468669996382,1.4864784660017722,6.817773345619133
9.22147101145954,1.5909168806923006,6.748222988372344
9.18603048455444,1.7109219967594658,6.689396254489598
9.102051844714095,1.8563998968974913,6.654467881246718
8.956822729026893,1.9891414050000868,6.509852160451632
8.749572691255766,2.075465839906892,6.375347284542644
8.456032674933093,2.1046180261213214,6.299056364038457
8.113954545675172,2.1586769345383696,6.198560693655432
7.832741669145578,2.1997164199858674,6.110626982070285
7.625491631374451,2.2874560095632757,6.048736355797812
7.516088265710882,2.361327083368771,6.012276036360069
7.455993459219625,2.4589727556404033,6.02514438439692
7.444821988782149,2.5668075415403795,5.990828789631984
7.347745762911658,2.6525659145789433,5.966624039753146
7.1778623676382995,2.773986185316712,5.821395540480116
7.05690230841872,2.895689486988601,5.749087680082573
6.959826082548229,2.9803157362906822,5.664524250126125
6.898960829819906,3.004090334756819,5.579348041691731
6.874691773352283,3.0258837166841106,5.434119542418702
6.801114157712347,3.0009769944814915,5.2876654861897805
6.739863681865491,2.9644660039799247,5.2012637207994965
6.629304646846321,2.940691405513788,5.078401635971469
6.482534638684983,2.953710828483339,4.955539551143442
6.323437490730568,2.943521714854995,4.856269437716307
6.237532735297555,2.9087089099581522,4.818277172083699
6.236762289060487,2.8730470122589473,4.829613573925688
6.334223738049512,2.8102141448841578,4.805715213285822
6.492165216648326,2.685680533871062,4.769254893848077
6.662433835040218,2.5736002839592755,4.76956128308705
6.77106675446672,2.4510478894850243,4.781204074168011
6.758354391555108,2.404630816289234,4.840643586528702
6.6597372732104825,2.3593458668299268,4.874652792054665
6.451331566083755,2.32708034034017,4.82287301066829
6.24331108207556,2.3429300726509275,4.7717060077598585
5.962483428664498,2.395856857331493,4.684078685413684
5.803771503828616,2.4586897247062827,4.634443628700117
5.719022417751204,2.531145643841175,4.5498801987436694
5.707465724195194,2.588883954401792,4.417826436746463
5.659698057497016,2.6593586569978394,4.272904326712405
5.513313272454212,2.7318145761327317,4.1151138686414965
5.318775597594698,2.8175729491712955,3.9686598124125756
5.13540939317266,2.8566312180799485,3.9061564076621575
5.037947944183635,2.90785981715579,3.9542595181808617
5.001736971041468,2.9579562924951492,4.014924587497444
5.136179839409727,2.9333326012266507,4.149735852645405
5.4166222697022555,2.845026949781001,4.2609551463924715
5.830351899007441,2.5970918514912915,4.371255272422621
6.268350584780251,2.3500058460039446,4.542220467769353
6.608117375326968,2.094428912492977,4.7845743557967095
6.825768437298504,1.8770611550883005,4.989242367430432
6.921688993813394,1.686581336425088,5.204940391667169
6.944031934688348,1.5099700335337882,5.42002563742596
6.967145321800369,1.404682526040898,5.599876120702898
6.965604429326235,1.2860925646443362,5.68260121522551
6.940179703503011,1.204013593749341,5.765326309748123
6.890485921212164,1.1318407055485695,5.690873724677772
6.828850222246774,1.070989054712625,5.579960820169677
6.730233103902148,1.0231568268462314,5.468741526422609
6.643557902232067,0.9291905567181681,5.490188773150694
6.630845539320456,0.8966419992942907,5.658702854585645
6.642402232876466,0.861829194397448,5.731010714983188
6.618133176408843,0.8725843698940335,5.633885326228861
6.508344587626741,0.8841886381929811,5.487431269999941
6.32574882944177,0.9699470112315449,5.353232783329926
6.13159637770079,1.1270291796685181,5.159594784299218
6.0961558507956894,1.2320336562272878,4.943283981584536
6.182060606228704,1.2164669548506508,4.871588899664939
6.205173993340725,1.0978769934540888,4.978825133305362
6.130440708345188,1.0180622700320592,5.109346949107706
5.885053581839226,0.9767397536504411,5.177671749398604
5.616167845102709,1.005325877996629,5.089738037813457
5.567629732167463,1.0262701671215588,4.859639719345006
6.128899815871054,0.8420170290090009,4.70675148909766
7.604304359855098,0.23293445878131352,4.789170194381299
9.565475256310128,-0.6835197059014243,5.102606385850308
11.26084220097691,-1.2798658840936814,5.502750731948573
12.29131404305454,-1.1476904378593273,5.483448209893296
12.580616605073342,-0.4902095778970049,5.015285452743106
12.0370667848223,0.1466100238745084,4.353484696562209
10.77892807969126,0.42171609183980213,4.025954600100459
9.052358062423249,0.43983007162352517,4.147591127972596
7.311534789769491,0.3416183374836518,4.472363721283592
6.024889573866957,0.305107346982085,4.780284906451093
5.570711517115733,0.207461674710453,4.784267966557737
6.058018762060854,-0.02971824808267062,4.908049219102683
7.229867488640348,-0.37699720424873584,5.1237472433394196
8.645947672370204,-0.7534283466292304,5.366713909844721
9.966492522703701,-0.9376814847417883,5.5030571211875445
10.995038249188662,-0.9589088048008386,5.625919206015572
11.755853908292705,-0.7791841616342116,5.881754220557725
12.042459908481773,-0.34218439935189315,5.821089151241143
11.791679658316339,0.18623435465140256,5.500299618036792
11.001201819085201,0.6928597267274065,5.28061853369341
9.769643509132985,1.1646722939065677,5.223323746005526
8.218350010797804,1.5592174160707852,5.136309202137298
6.654344149551011,1.8561168659633707,4.950330934080907
5.334954968573113,2.133204150467509,4.64639280902005
4.333760083504044,2.378025908481891,4.3099774246280935
3.6488333787511387,2.511050447518607,4.786719080469518
3.161911356924551,2.834271774284415,5.390918659723559
3.0186083568300175,3.2330623604604427,5.9647857043193095
3.462000166262298,3.500809624138599,6.677753463408638
4.550640699238514,3.510149644964581,7.8671564891004175
6.090377504017685,3.334670465809764,9.350080405727983
7.776884316958192,3.132869409781725,10.882639379069117
9.231101589422883,2.970126622662338,12.303979058663183
10.161030197563218,2.9817308909612854,13.406367540486734
10.37097679716408,3.207023514521341,14.12730141978935
10.090534366871552,3.3810875390055544,14.731807388282364
9.516937143374882,3.6075122863020925,15.199663756193582
8.551568008329449,3.7994072596359088,15.274422730502906
7.279946494049728,3.9327148296067453,14.436141772673768
5.509846264387409,4.291598054071758,12.832194106652011
3.5448231367470417,4.7854870341123315,11.143683010673804
1.7631662135287123,5.229845600681788,9.601932360163492
0.5177398713092832,5.435892120721637,8.19621853175703
0.15023701622814023,5.353247087958401,7.185134043147325
0.7342352639252187,4.946248604692874,6.7142137828463815
2.2581779208445076,4.293013208742361,6.445204031028406
4.539469228801037,3.4433543445121026,6.23195712070345
7.002971071824002,2.48699281811835,6.3220355569614055
8.967608976345836,1.8566829278316122,6.519656616098756
10.152940512074009,1.6081817676736616,6.253404367431535
10.423752364403196,1.7032801615382076,5.895848125550467
9.997310372186398,1.8889484543213688,5.663298693170234
9.020769766703486,2.1606581510772145,5.497235725647065
7.837364346567981,2.52916442730233,5.1121044522584596
6.712898063568132,2.7162478747560947,4.748726814836911
5.940140487789544,2.6268100995739623,4.796829925355615
5.9366734797227405,2.3177403195141877,4.97269734852591
6.371975603665814,1.8303610509583896,5.15162866408593
6.770296308229653,1.322603555145903,5.474869311202062
7.133176485888391,0.9399457322147536,6.017484653422604
7.546135668956509,0.685500922440269,6.405986208439908
8.131674809127723,0.48483199014871214,6.664885115371787
8.914062962869654,0.3880354106794421,6.952278221528121
9.391739629851433,0.4228482155762848,7.46793131071907
9.528108613812359,0.6175734982513076,7.763903315566639
9.556615124583853,1.023439857780352,8.27986279399656
8.961060183330764,1.4683644862180494,8.83626565197087
8.093537720392888,1.7004498521970008,9.251729460017767
7.273012477916121,1.7211111103878098,9.349467627250037
6.512582041930612,1.6203520978408505,9.445980237526419
5.923575893692595,1.5535567973883717,9.64237573970788
5.579571648842007,1.4290231863752758,9.63532878721151
5.357297909448067,1.275903451015992,9.52043282259677
5.102665428097295,1.4768554142416694,9.048593394578909
4.54293623686784,1.7296020384114301,8.37974568590164
3.7254927793393438,1.9942359618142589,8.034138624340505
3.1283969456121197,2.2605680708218117,8.054666703351671
2.8957221820177694,2.2659456585701045,8.051602810961946
3.1515103327241416,2.1278265627192163,8.052521978678863
3.723951886865209,1.8620605155799048,8.043636690748656
4.3091058039178884,1.5824259526686804,7.950187972862002
5.043341067843107,1.524970673042184,7.705076581683892
5.766019638212315,1.4638359912721186,7.266327191475074
6.15663588040548,1.3169429364634895,6.954729335439902
6.5002549021375335,1.3664733499346071,6.815015842468379
6.672064413003561,1.4222304439563798,6.79418137421824
6.844259146988121,1.4751572286369454,6.640373976253976
6.917451539509523,1.4094940519209493,6.422224838105458
6.964833983089167,1.27505435821363,6.360027822594012
6.926696894354332,1.1706159435231018,6.515060777514167
6.989488262675324,1.300810173218611,6.4819707397051225
6.988717816438256,1.230052439688443,6.553359432385747
7.037641152492035,1.2328827490296497,6.759559390214332
7.172084020860294,1.2467512648015626,7.027956363554362
7.305756442991485,1.1646722939065677,7.29482139069953
7.465238814064434,1.2009002534740136,7.491216892880991
7.5392016528229036,1.2863755955784568,7.6634076451836135
7.467550152775637,1.4346838050576893,7.7859633407726685
7.396283875846903,1.6410133560316595,7.812925593802261
7.239883289722224,1.8937599802014202,7.633687889003268
6.81382652062396,2.115939263486148,7.438211554538724
6.155865434168412,2.393592609858528,7.324847536118848
5.33880719975845,2.708039977666595,7.077285031028957
4.554878153542385,2.7199272768996634,7.393172336409747
4.413886492159053,3.2305150820533566,6.891919541450512
4.47513696800591,3.2438175359570285,7.038373597679432
4.74325225850536,3.1433415543441896,7.137030932628622
5.084945164644746,3.0287140260253174,7.21240268541589
5.328020952439506,2.853517877804621,7.1281456446984155
5.534115320855032,2.656245316722512,7.127226476981497
5.729808665070148,2.6293573779810484,7.214241020849726
5.851924393645328,2.619734326220945,7.482025215711811
5.81455775114756,2.601903377371343,7.759613866221021
5.948230173278752,2.517277128069262,7.905148754733024
6.316503474596962,2.589733047204154,7.730200499279648
6.670523520529426,2.4878419109207117,7.8542881410635665
7.05073873852218,2.5260510870270028,7.799750856526437
7.210221109595129,2.531994736643537,7.66892265148512
7.050353515403647,2.4620860959157307,7.592938120219906
6.766444077044316,2.2781159887372935,7.682403777999917
6.533384090331431,2.2331140702121064,7.5693461488190135
6.386999305288628,2.2713232463183974,7.495506342226608
6.20363310086659,2.3231179072624806,7.469463256913934
6.169733466435625,2.5469953761519326,7.2068876791143825
6.121965799737447,2.6268100995739623,6.91734984828524
6.0483881840975116,2.6253949449033587,6.758946611736387
5.865792425912542,2.7001151115112165,6.6728512355850755
5.633117662318191,2.678887791452166,6.536201635003279
5.535270990210633,2.6927563072240788,6.51077132816855
5.510231487505943,2.6720950490332696,6.667336229283568
5.719022417751204,2.7170969675584566,6.75588271934666
6.0483881840975116,2.602752470173705,6.830948082894957
6.27875160898066,2.40717809469632,6.927460693171337
6.363500695058073,2.3327409590225834,6.915205123612432
6.400482114437307,2.3301936806154973,6.818998902575023
6.3877697515256955,2.2928335973115685,6.7335163049016575
6.3881549746442285,2.304720896544637,6.7335163049016575
6.449405450491086,2.3420809798485656,6.868327570049618
6.572291625303334,2.36500648551234,6.96729129423778
6.76798496951845,2.358779804961685,6.872923408634208
6.915140200798321,2.3517040316086684,6.68143013427631
6.964448759970633,2.347741598530979,6.5245588439223186
6.915525423916854,2.3474585675968584,6.463280996127791
6.805351612016218,2.3737804444700807,6.450106258851968
6.745256805524962,2.4465193945390937,6.402309537572236
6.770296308229653,2.516994097135141,6.355431984009423
6.831932007195043,2.5410517265353985,6.417322610281896
6.905509622834979,2.5512408401637425,6.418548167237787
7.015298211617081,2.524069870488158,6.383313404755933
7.039952491203238,2.5226547158175547,6.335210294237229
6.941335372858612,2.4654824671251787,6.381168680083125
6.7937949184602076,2.434066033437784,6.439076246248953
6.634312547387259,2.403781723486872,6.545086922933486
6.462888259639765,2.4230278270070778,6.724631016971451
6.303405888566816,2.4190653939293885,6.952278221528121
6.241770189601426,2.4006683832115447,7.1811509830406814
6.204788770222191,2.4043477853551134,7.325766703835766
6.204788770222191,2.406612032828079,7.4467904532299585
6.192076407310579,2.3967059501338555,7.543303063506339
6.191691184192045,2.3488737222674616,7.554639465348327
6.191305961073512,2.300758463466947,7.541464728072503
6.2521712138018355,2.275002648461966,7.529821936991543
6.2517859906833015,2.2376425651580374,7.456594908877083
6.215189794422601,2.2367934723556755,7.371418700442689
6.1785935981619,2.2478316787863815,7.274293311688363
6.129285038989587,2.2127358429554183,7.273067754732473
6.104245536284897,2.154148439592439,7.319945308295286
6.177052705687765,2.092164665020012,7.30768973873638
6.262572238002245,2.0782961492480987,7.308608906453299
6.323822713849102,2.0777300873798574,7.357937573927893
6.261801791765178,2.019425714950999,7.3680484188139905
6.249089428853566,1.9710274252163638,7.342924501218234
6.22443514926741,1.9582910331809336,7.2816466534237065
6.139686063189997,2.0324451379205497,7.281953042662679
6.029127028170827,2.01150084879562,7.316268637427615
5.930509909826202,1.9548946619714855,7.374482592832416
5.80723851189542,1.8988545370155923,7.432083769759272
5.745988036048563,1.9022509082250403,7.540239171116613
5.72171897958094,1.9297049088347455,7.685774059628615
5.770642315634719,1.954328600103244,7.783512226860887
5.8446051543931885,2.001311735167276,7.821810881732467
5.821106544162633,2.060748231332617,7.749809410573897
5.735587011848153,2.085937984469357,7.71304270189718
5.723645095173609,2.1215998821685615,7.677195160937382
5.72480076452921,2.2045279458659186,7.618062037815663
5.761782183908444,2.2401898435651235,7.6312367750914865
5.774109323701523,2.2523601737323125,7.65605430344827
5.834974576429846,2.201414605590591,7.583133664572782
5.969417444798105,2.1849988114115924,7.512357750370103
6.079976479817274,2.1943388322375745,7.501940516245033
6.177823151924833,2.1923576156987297,7.527370823079762
6.251400767564768,2.189527306357523,7.455675741160165
6.373901719258482,2.2090564408118496,7.372950646637553
6.448249781135485,2.2537753284029156,7.277969982556035
6.460962144047097,2.2888711642338793,7.242735220074182
6.423595501549329,2.2540583593370362,7.26571441299713
6.337305522997782,2.206792193338884,7.215160188566644
6.324593160086169,2.1589599654724902,7.20198545129082
6.373516496139948,2.1343362742039917,7.238752159967538
6.397785552607571,2.1097125829354932,7.238445770728565
6.361189356346871,2.1323550576651473,7.117422021334373
6.313036466530159,2.1796212236632995,7.020603021819019
6.15355409545721,2.1708472647055586,6.994253547267372
5.970187891035172,2.1875460898186785,7.0160071832344295
5.810705519962223,2.166318769759628,6.977095749884905
5.73635745808522,2.0981083146365456,7.083719205047383
5.784895571020466,2.076031901775133,7.241509663118291
5.883127466246558,2.0981083146365456,7.267552748430965
5.980588915235582,2.072069468697444,7.280421096467816
6.041454167963905,2.0482948702313073,7.365597304902209
6.053781307756983,2.0514082105066347,7.547286123612984
6.01795555773335,2.1504690374488704,7.645330680084228
5.945148388330482,2.224906173122607,7.694046569080877
5.83535979954838,2.265662627635984,7.802201970438218
5.7498402672339,2.2820784218149828,7.922306552115492
5.6639355118008865,2.297362092257499,7.994001634035089
5.578415979486406,2.3109475770952916,7.968877716439333
5.480569307378849,2.314060917370619,8.01606165924112
5.420089277769058,2.3760446919430462,8.04057279835893
5.359224025040735,2.4241599507435607,7.979907729042348
5.31068591210549,2.4603879103110065,7.931498229284671
5.249820659377167,2.4977479936149356,7.919242659725765
5.164686350181221,2.560297830055604,7.9434474096046035
5.017916342019883,2.5512408401637425,7.92904711537289
4.871146333858547,2.566524510606259,7.915259599619121
4.809895858011689,2.5795439335758097,7.90239125158227
4.810281081130223,2.5911482018747574,7.878492890942405
4.834550137597845,2.603601562976067,7.927515169178027
4.95705108929156,2.614073707538532,8.001967754248378
5.116533460364509,2.623696759298635,8.06477754823777
5.275630608318924,2.632470718256376,8.079484231708456
5.422785839598794,2.6531319764471846,8.081935345620236
5.545672014411043,2.674359296506235,8.083773681054073
5.6192496300509776,2.6715289871650283,8.02433416869338
5.680500105897835,2.6565283476566326,7.940383517214878
5.741750581744692,2.665019275680253,7.832228115857537
5.765634415093781,2.6146397694067733,7.747051907423143
5.814172528029027,2.564543294067414,7.686386838106561
5.911633977018051,2.5019934576267455,7.674437657786628
6.009095426007075,2.4507648585509036,7.63859011682683
6.081902595409943,2.400385352277424,7.602436186628058
6.1431530712568,2.3862338055713903,7.554639465348327
6.167422127724423,2.3483076603992203,7.493668006792772
6.215960240659668,2.3225518453942393,7.457514076594
6.22867260357128,2.3449112891897723,7.385512605435431
6.204018323985124,2.332174897154342,7.324541146879876
6.130825931463722,2.3689689185900296,7.275825257883226
6.106942098114633,2.3933095789244074,7.263876077563293
6.009095426007075,2.431518755030698,7.251007729526443
5.923961116811129,2.4810491685018157,7.226496590408632
5.838441584496649,2.494917684273729,7.2133218531328085
5.777191108649792,2.5087862000456416,7.236913824533701
5.801845388235948,2.5087862000456416,7.273680533210418
5.838056361378116,2.471992178609954,7.2856297135303505
5.910863530780984,2.4111405277740094,7.321783643729122
6.008324979770007,2.3618931452370124,7.382755102284677
6.044535952912175,2.3386846086391175,7.467624921480097
6.056863092705253,2.314910010172981,7.491523282119964
6.068419786261264,2.278399019671414,7.491216892880991
6.06803456314273,2.2316989155415032,7.5629119748005875
6.092303619610353,2.233680132080348,7.696497682992658
6.104245536284897,2.1994333890517463,7.804959473588972
6.079206033580207,2.1770739452562133,7.864705375188636
6.030282697526428,2.1787721308609376,7.887990957350556
5.956705081886493,2.1668848316278693,7.814151150758151
5.834974576429846,2.217264337901349,7.789333622401367
5.7498402672339,2.2908523807727237,7.765128872522529
5.688975014505576,2.3279294331425318,7.7409241226436905
5.640822124688865,2.3893471458467177,7.753486081441569
5.616553068221242,2.4018005069480273,7.741230511882663
5.640436901570331,2.3655725473805815,7.765128872522529
5.688975014505576,2.3160421339094635,7.740617733404718
5.701687377417188,2.3386846086391175,7.680565442566081
5.6647059580379535,2.3016075562693095,7.582520886094836
5.628109761777253,2.3369864230343933,7.510213025697294
5.579956871960541,2.3859507746372697,7.498263845377362
5.519862065469285,2.507654076309159,7.499489402333252
5.4593820358594956,2.580393026378172,7.463948250612426
5.435883425628941,2.651999852710702,7.416457918571667
5.497133901475797,2.675208389308597,7.441888225406396
5.5949805735833555,2.648603481501254,7.418602643244475
5.717096302158536,2.609545212592601,7.419521810961394
5.78951824844287,2.5116165093868483,7.406653462924543
5.898921614106439,2.44906667294618,7.406959852163515
5.984055923302385,2.3879319911761145,7.455675741160165
6.069575455616865,2.374629537272443,7.492748839075854
6.167422127724423,2.3491567532015822,7.530128326230516
6.239844074008757,2.2755687103302074,7.554026686870381
6.349632662790859,2.237076503289796,7.5549458545873
6.4347669719868055,2.1869800279504368,7.542996674267367
6.483690308040584,2.1612242129454557,7.5190983136275005
6.544170337650375,2.087636170074081,7.506536354829622
6.580381310792542,2.051125179572514,7.530434715469489
6.579610864555474,1.9908395906048109,7.517259978193665
6.566513278525329,1.9079115269074538,7.5641375317564785
6.541088552702105,1.8269646797489414,7.707527695595673
6.514893380641814,1.7103559348912243,7.862254261276855
6.514122934404747,1.6265787783915053,7.88492706496083
6.4767562919069785,1.5770483649203875,7.762677758610748
6.428218178971733,1.5767653339862668,7.677195160937382
6.293775310603474,1.6265787783915053,7.615610923903882
6.123121469093048,1.6780904084014676,7.58987422783018
6.013718103429479,1.740074182973895,7.553107519153463
5.903929514647377,1.7898876273791333,7.504085240917841
5.831122345244509,1.839418040850251,7.504085240917841
5.80723851189542,1.9101757743804193,7.396236228799473
5.821106544162633,2.026784519238136,7.228947704320413
5.760626514552843,2.1114107685402175,7.1811509830406814
5.675877428475431,2.187263058884558,7.278276371795007
5.615397398865641,2.262266256426536,7.363452580229401
5.57880120260494,2.3021736181375507,7.508987468741403
5.566474062811862,2.317457288580067,7.678420717893272
5.578030756367872,2.235378317685072,7.7859633407726685
5.626183646184584,2.1855648732798336,7.7614522016548575
5.724030318292143,2.1479217590417843,7.798525299570547
5.760241291434309,2.123298067773286,7.810780869129452
5.759856068315776,2.0751828089727713,7.809861701412534
5.710547509143463,2.0392378803394458,7.747971075140061
5.661624173089685,2.0381057566029632,7.638283727587857
5.650452702652207,2.144808418766457,7.543303063506339
5.675877428475431,2.2036788530635567,7.508374690263459
5.823417882873835,2.2591529161512085,7.451079902575575
6.00755453353294,2.3004754325328265,7.309221684931244
6.130825931463722,2.3562325265545994,7.227109368886577
6.156250657286946,2.414253868049337,7.156027065444925
6.131981600819323,2.46180306498161,7.0959747746062884
6.107712544351701,2.4742564260829196,7.095668385367316
6.021807788918687,2.4419908995931627,7.190955438687806
5.972114006627841,2.396422919199735,7.262037742129458
5.97095833727224,2.2888711642338793,7.296353336894393
5.9582459743606275,2.2642474729653808,7.247331058658771
5.896225052276703,2.194621863171695,7.305545014063572
5.833818907074245,2.1009386239777523,7.351503399909468
5.894298936684034,2.027916642974619,7.375095371310361
6.101934197573695,1.9882923121977247,7.437905165299751
6.224049926148876,1.9636686209292262,7.560154471649835
6.285300401995733,1.95263041449852,7.681790999521971
6.2980127649073445,1.9874432193953628,7.634300667481212
6.223664703030342,1.942441300870176,7.705076581683892
6.126203254041318,1.9817826007129493,7.764822483283556
5.991760385673059,2.009236601322655,7.775546106647599
5.931665579181803,2.0947119434270975,7.776465274364516
5.932821248537404,2.2133019048236595,7.693740179841904
5.860014079134536,2.2619832254924153,7.633075110525322
5.787206909731668,2.3219857835259976,7.548511680568874
5.8003044957618135,2.3927435170561657,7.4893785574471545
5.899692060343506,2.4960498080102114,7.359469520122756
6.0480029609789785,2.6126585528679285,7.351503399909468
6.121580576618913,2.64690529589653,7.341086165784398
6.170118689554159,2.5713360364863105,7.219449637912261
6.194002522903248,2.5079371072432797,7.073301970922313
6.2067148858148595,2.542183850271881,6.98935131944381
6.170503912672692,2.601903377371343,6.9296054178441455
6.134678162649059,2.6483204505671334,6.7966324881300215
6.172044805146827,2.718795153163181,6.750061323806181
6.135448608886127,2.744550968168162,6.810726393122763
6.159717665353749,2.7326636689350936,6.847186712560506
6.257179114342773,2.658226533261357,6.834931143001601
6.354640563331798,2.619168264352704,6.7993899912807745
6.415891039178655,2.6302064707834103,6.812564728556598
6.391621982711032,2.631904656388134,6.872617019395236
6.354255340213264,2.585487583192344,6.919800962197021
6.377753950443819,2.5263341179611234,7.003751613675524
6.401252560674375,2.4326508787671806,7.159703736312597
6.412424031111851,2.3618931452370124,7.243347998552127
6.3873845284071615,2.277832957803173,7.205049343680547
6.301864996092681,2.3021736181375507,7.119566746007181
6.192846853547646,2.4001023213433035,7.08341281580841
6.0715015712095335,2.5229377467516754,7.084025594286356
6.023348681392822,2.5835063666534994,7.048178053326557
6.011406764718277,2.6194512952868245,7.024586081925664
6.023733904511356,2.620017357155066,7.07299558168334
6.023348681392822,2.596808820557171,7.108843122643139
6.036061044304434,2.6327537491904964,7.1217114706799896
6.06071532389059,2.668981708757942,7.1590909578346515
6.074198133039269,2.77738255652616,7.197696001945204
6.038372383015636,2.8506875684634143,7.210564349982055
6.002161409873469,2.8985197963298077,7.150512059143417
5.953623296938224,2.9231434875983062,7.126000920025606
5.916641877558988,2.9254077350712717,7.198002391184176
5.977507130287313,2.889462806437946,7.2828722103795975
6.111949998655571,2.863140929564724,7.320558086773231
6.245622420786763,2.7892698557592284,7.393785114887692
6.355411009568865,2.7408715660245933,7.5034724624398965
6.391236759592498,2.668415646889701,7.5267580446018165
6.403178676267043,2.6307725326516516,7.465786586046262
6.379294842917954,2.6902090288169926,7.406040684446597
6.281833393928929,2.729550328659766,7.453837405726329
6.17127435890976,2.7335127617374555,7.537175278726886
6.121965799737447,2.698699956840613,7.535643332532024
6.096926297032757,2.627942223310445,7.570265316535931
6.035290598067366,2.618319171550342,7.6300112181355955
5.961327759308897,2.585204552258223,7.700787132338275
5.875808226994417,2.586619706928827,7.6634076451836135
5.863095864082806,2.5370892934577087,7.577618658271274
5.887364920550429,2.536806262523588,7.590180617069152
5.9366734797227405,2.5484105308225358,7.627253714984842
5.973269675983442,2.5365232315894675,7.675969603981491
6.009480649125609,2.4985970864172975,7.627253714984842
5.996383063095463,2.413970837115216,7.577312269032302
6.020652119563086,2.3887810839784764,7.540851949594558
6.045306399149243,2.399536259475062,7.505004408634759
6.058018762060854,2.4230278270070778,7.493668006792772
6.044921176030709,2.375478630074805,7.516647199715719
6.00755453353294,2.3044378656105162,7.527064433840789
6.018726003970418,2.194055801303454,7.416151529332694
6.030282697526428,2.1199016965638378,7.330362542420356
6.005243194821738,2.084239798864633,7.317187805144533
6.005243194821738,2.0601821694643756,7.304625846346655
6.041839391082439,2.046879715560704,7.292983055265694
6.053781307756983,2.047728808363066,7.341392555023371
6.066493670668596,2.0717864377633233,7.366210083380155
6.041839391082439,2.0717864377633233,7.32974976394241
6.006398864177339,2.168016955364352,7.2945150014605575
5.945533611449016,2.2302837608709,7.331281710137274
5.896610275395237,2.220660709110797,7.402976792056871
5.933206471655938,2.207641286141246,7.391027611736938
6.043765506675108,2.2268873896614516,7.271842197776582
6.068419786261264,2.249246833456985,7.224351865735823
6.1173431223150425,2.2356613486191925,7.2004535050959575
6.154324541694277,2.244718338511054,7.080348923418684
6.215960240659668,2.277549926869052,6.984755480859221
6.240229297127291,2.2653795967018633,7.009266619977032
6.326134052560304,2.2761347721984486,7.0469524963706665
6.473289283840175,2.2840596383538276,7.012636901605731
6.558423593036121,2.245850462247537,7.001300499763743
6.557653146799054,2.174526666849127,7.048178053326557
6.593478896822687,2.0907495103494083,7.107923954926221
6.630075093083388,2.076314932709254,7.023360524969773
6.631230762438989,2.160375120143094,7.0248924711646366
6.483690308040584,2.140845985688767,7.0831064265694375
6.324207936967636,2.1094295520013726,7.128452033937387
6.188994622362309,2.0525403342431177,7.125694530786634
6.066493670668596,2.0567857982549276,7.208726014548219
5.919338439388724,2.0748997780386507,7.352116178387413
5.808779404369555,2.042351220614773,7.398380953472281
5.698605592468919,2.0332942307229116,7.4210537571562565
5.574948971419603,1.9529134454326407,7.4660929752852345
5.464389936400433,1.931969156307711,7.500714959289143
5.378099957848886,1.874796907615335,7.546673345135038
5.267155699711183,1.8080016071628564,7.689144341257315
5.180480498041102,1.7516784512728425,7.783818616099859
5.216691471183269,1.6919589241733806,7.855820087258429
5.290269086823204,1.7143183679689138,7.857352033453293
5.3025962266162825,1.7273377909384646,7.918323492008848
5.339577645995517,1.7513954203387219,7.967652159483443
5.376944288493285,1.7983785554027536,7.9569285361194
5.500215686424067,1.868004165196439,7.971941608829059
5.599218027887226,1.9741407654916912,7.987261070777691
5.636969893503528,2.0454645608901005,7.989099406211527
5.698605592468919,2.103768933318959,7.966732991766524
5.760241291434309,2.150752068382991,7.992776077079198
5.919338439388724,2.1371665835451985,8.091433412028389
6.079976479817274,2.239340750762761,7.974699111979813
6.190150291717911,2.2356613486191925,7.915565988858094
6.287226517588401,2.173960604980886,7.952026308295838
6.371975603665814,2.0890513247446845,8.012384988373448
6.48214941556645,2.062446416937341,8.001354975770433
6.5680541709994635,2.0695221902903578,7.8454028531333595
6.630075093083388,2.124713222443889,7.665552369856422
6.654344149551011,2.1114107685402175,7.62939843965765
6.654729372669545,2.1337702123357505,7.545141398940175
6.667441735581156,2.1682999862984724,7.485395497340511
6.643943125350601,2.239340750762761,7.40175123510098
6.472904060721642,2.290003287970362,7.327605039269602
6.301479772974148,2.293116628245689,7.276744425600144
6.166651681487355,2.2832105455514657,7.2261902011696595
6.043765506675108,2.2373595342239168,7.199534337379039
5.9821298077097165,2.202263698392953,7.173797641305338
5.9574755281235605,2.1654696769572657,7.100264223951905
5.9574755281235605,2.153016315855956,7.075753084834094
5.932821248537404,2.1532993467900767,7.063497515275189
5.883512689365091,2.1312229339286644,7.110681458076975
5.8226474366367675,2.168583017232593,7.110375068838002
5.712473624736131,2.147072666239422,7.108536733404167
5.601914589716961,2.125845346180372,7.118647578290263
5.491740777816325,2.1286756555215782,7.129371201654306
5.455144581555625,2.154997532394801,7.20198545129082
5.454759358437091,2.1439593259640946,7.2623441313684305
5.515624611165414,2.1085804591990107,7.371418700442689
5.576489863893738,2.0853719226011154,7.480799658755921
5.698220369350385,2.0361245400641184,7.566282256429287
5.747143705404164,2.023671178962809,7.614998145425936
5.759085622078708,2.000462642364914,7.6634076451836135
5.771412761871787,2.012349941597982,7.675663214742519
5.759470845197242,2.0491439630336696,7.700480743099302
5.784510347901932,2.085937984469357,7.774014160452735
5.796837487695011,2.1105616757378556,7.811087258368424
5.784510347901932,2.110844706671976,7.810780869129452
5.797222710813544,2.14622357343706,7.799444467287464
5.772953654345922,2.1702812028373173,7.763290537088693
5.749069820996833,2.206226131470643,7.727442996128894
5.6882045682685085,2.255190483073519,7.703238246250056
5.615012175747108,2.2687759679113113,7.702319078533138
5.529877866551161,2.3307597424837385,7.702319078533138
5.432416417562137,2.3689689185900296,7.689450730496287
5.359994471277803,2.4668976217957823,7.690369898213206
5.299514441668013,2.539636571864795,7.6545223572534065
5.3249391674912365,2.5990730680301364,7.6557479142092975
5.373862503545015,2.6234137283645143,7.729587720801703
5.509075818150341,2.6570944095248743,7.768499154151228
5.655845826311679,2.64265983188472,7.81874698934274
5.766019638212315,2.641527708148237,7.892893185174119
5.863866310319873,2.6401125534776337,7.930272672328781
5.924731563048196,2.602752470173705,7.942834631126659
5.972884452864908,2.5419008193377604,7.954477422207619
5.996768286213997,2.481615230370057,7.977763004369539
6.045306399149243,2.4434060542637663,7.929353504611862
6.020266896444552,2.3947247335950106,7.855513698019457
5.971343560390773,2.3706671041947533,7.793929460985956
5.88543880495776,2.3474585675968584,7.743988015033417
5.848457385578525,2.3474585675968584,7.694965736797795
5.836515468903981,2.358779804961685,7.646556237040118
5.7999192726432796,2.358779804961685,7.597840348043468
5.787592132850202,2.347741598530979,7.633687889003268
5.787592132850202,2.3712331660629946,7.609789528363401
5.7999192726432796,2.3706671041947533,7.597840348043468
5.812246412436358,2.358779804961685,7.610095917602374
5.812246412436358,2.3828374343619423,7.622657876400252
5.776035439294191,2.431518755030698,7.610708696080319
5.72788254947748,2.4926534368007633,7.599065904999359
5.691671576335312,2.5537881185708287,7.61193425303621
5.655845826311679,2.6378483060046682,7.564443920995451
5.63196199296259,2.6848314410687,7.480186880277976
5.632347216081124,2.6964357093676474,7.45628851963811
5.632347216081124,2.7213424315702666,7.505004408634759
5.645059578992735,2.7578534220718334,7.542077506550449
5.68204099837197,2.7691746594366604,7.5549458545873
5.693982915046514,2.75643826740123,7.530741104708461
5.730964334425749,2.75643826740123,7.567507813385178
5.80415672694715,2.73096548333037,7.580376161422028
5.864636756556941,2.69332236909232,7.568426981102095
5.900462506580574,2.6092621816584805,7.615610923903882
5.949000619515819,2.572468160222793,7.63981567378272
5.972884452864908,2.4994461792196594,7.614691756186963
5.985211592657986,2.4977479936149356,7.554333076109354
5.972499229746374,2.473973395148799,7.541771117311476
5.972499229746374,2.4513309204191454,7.6260281580289515
5.984826369539452,2.473973395148799,7.554026686870381
6.009095426007075,2.448217580143818,7.493361617553799
6.045306399149243,2.399819290409183,7.529209158513598
6.009095426007075,2.460953972179248,7.542077506550449
5.898921614106439,2.464350343388696,7.588955060113262
5.8014601651174145,2.514446818728055,7.576393101315384
5.6431334634000665,2.5662414796721382,7.575167544359493
5.533730097736498,2.665585337548494,7.611627863797238
5.497904347712865,2.7371921638810246,7.5396263926386675
5.498289570831399,2.7847413608132974,7.516340810476747
5.534885767092099,2.7604007004789195,7.540851949594558
5.571096740234267,2.723606679043232,7.552801129914491
5.63196199296259,2.673793234637994,7.52828999079668
5.6188644069324445,2.601903377371343,7.527064433840789
