accx,accy,accz
1.8734122492347096,-8.98738562760324,0.2465561058434001
1.8608625959038232,-9.010859522201963,0.2580297612342512
1.8362652753752862,-9.022700336291585,0.23329765961397217
1.824468601244253,-8.985931492539603,0.2580297612342512
1.787823613518065,-8.985516025378564,0.23329765961397217
1.726330312196722,-8.996318171565585,0.2322777791347854
1.7017329916681847,-9.007951252074688,0.21978424326474755
1.6653389970086143,-8.982400021670768,0.25599000027587765
1.6281920231491909,-9.005666182688971,0.2549701197966909
1.6281920231491909,-9.005042981947412,0.27919228117737654
1.6281920231491909,-9.004212047625334,0.3276366039387478
1.6276900370159555,-9.051990771144858,0.3388552892098022
1.6156423698183047,-9.027270475063018,0.36333242071028454
1.615391376751687,-9.062585183751363,0.39902823748182126
1.6030927164874182,-9.049913435339663,0.42325039886250687
1.590543063156532,-9.073179596357866,0.44696262000359915
1.615140383685069,-9.060923315107205,0.48367831725432264
1.6025907303541829,-9.084604943286449,0.4951519726451737
1.6025907303541829,-9.084397209705928,0.5073905383954149
1.6269370578161022,-9.09623802379555,0.5438512655263417
1.6023397372875652,-9.107455637143612,0.5553249209171928
1.6266860647494845,-9.119919651974794,0.5555798910369895
1.6266860647494845,-9.131760466064414,0.5673085165476373
1.6389847250137533,-9.119919651974794,0.5798020524176751
1.6138854183519806,-9.167282908333279,0.5785272018186917
1.6507813991447864,-9.155857561404696,0.5915306779283229
1.6382317458139,-9.1791237224229,0.6149879289496184
1.6623270802092016,-9.215892566174883,0.6147329588298217
1.7233183953973092,-9.241028329417764,0.6272264946998596
1.7471627367259932,-9.289222520098328,0.6509387158409519
1.8202017191117517,-9.32661456459187,0.6634322517109897
1.819699732978516,-9.374808755272435,0.662412371231803
1.8929897084308922,-9.387480503684134,0.7116216043525643
1.905037375628543,-9.42362614669456,0.7233502298632121
1.9288817169572272,-9.472235804536162,0.7228402896236187
1.9778253649476838,-9.472443538116682,0.7717945526245833
1.9898730321453346,-9.496332899876444,0.7957617438854723
2.0383146940025556,-9.533101743628427,0.8199839052661579
2.050362361200207,-9.545150291298569,0.8319675008966024
2.0624100283978577,-9.569039653058331,0.8559346921574913
2.0744576955955085,-9.593344481979134,0.8556797220376946
2.1111026833216964,-9.605808496810313,0.8681732579077325
2.123150350519347,-9.618064778060974,0.880156853538177
2.1103497041218433,-9.654210421071399,0.8551697817981012
2.122648364386112,-9.66646670232206,0.8551697817981012
2.1100987110552256,-9.6785152499922,0.8426762459280634
2.085501390526688,-9.689940596920783,0.8421663056884701
2.0732027302624196,-9.714245425841584,0.8171792339483943
2.0852503974600705,-9.726293973511726,0.8294177996986355
2.0606530769315334,-9.738134787601346,0.8044307279585597
2.0481034236006472,-9.749975601690968,0.804175757838763
2.048354416667265,-9.737719320440307,0.8164143235890042
2.0486054097338826,-9.726086239931206,0.7924471323281153
2.0360557564029964,-9.737511586859789,0.804175757838763
2.0235061030721098,-9.761400948619551,0.8036658175991697
1.9991597756101904,-9.760362280716953,0.827378038740262
1.9863591292126865,-9.796300190146857,0.8146295327504274
1.9743114620150355,-9.783836175315676,0.8266131283808719
1.962012801750767,-9.795469255824777,0.8263581582610752
1.9492121553532629,-9.843455712924822,0.8253382777818884
1.961008829484296,-9.879601355935247,0.824828337542295
1.961008829484296,-9.879601355935247,0.824828337542295
1.9484591761534098,-9.90369845127553,0.8120798315524604
1.9482081830867921,-9.92779554661581,0.8115698913128672
1.9482081830867921,-9.939428627124913,0.8235534869433115
1.9597538641512073,-9.987830551385997,0.8227885765839215
1.9474552038869388,-9.999463631895098,0.8345172020945693
1.984100191613127,-10.000294566217178,0.8350271423341626
1.9963988518773954,-10.012550847467839,0.8350271423341626
2.020494186272697,-10.03727114354968,0.8227885765839215
2.007944532941811,-10.060952771728923,0.8342622319747726
2.0199922001394617,-10.097098414739346,0.8337522917351792
2.007693539875193,-10.096475213997786,0.8579744531158648
1.995143886544307,-10.108523761667929,0.845480917245827
2.031788874270495,-10.13324405774977,0.845480917245827
2.056135201732414,-10.14570807258095,0.8577194829960681
2.056135201732414,-10.14570807258095,0.8577194829960681
2.0681828689300654,-10.157964353831611,0.8577194829960681
2.068433861996683,-10.133867258491328,0.8579744531158648
2.080481529194334,-10.14570807258095,0.8821966144965505
2.0679318758634473,-10.169181967179673,0.8936702698874016
2.092278203325367,-10.181853715591373,0.8939252400071983
2.0676808827968296,-10.193279062519956,0.8931603296478082
2.0676808827968296,-10.205535343770617,0.880921763897567
2.067429889730212,-10.2296324391109,0.8804118236579737
2.0669279035969765,-10.266193549282363,0.8556797220376946
2.0789755707946274,-10.290913845364203,0.8312025905372123
2.0661749243971235,-10.351156583714909,0.8057055785575432
2.0651709521306527,-10.435288683825378,0.804175757838763
2.0521193126665307,-10.507579969846224,0.7784237757392973
2.0267690129381406,-10.591296602795655,0.7644004191504793
2.00141871320975,-10.675220969325602,0.750632032681458
2.012713401207548,-10.74688905460489,0.7858179092134013
1.9999127548100437,-10.794460044543897,0.796781624364659
1.9625147878840024,-10.853248647830965,0.8194739650265646
1.9256188070911966,-10.86321985969591,0.8791369730589902
1.8764241660341223,-10.885447352811514,0.9143228495909336
1.8520778385722028,-10.872360137238775,0.9505286066020636
1.8277315111102834,-10.859272921666035,0.9747507679827493
1.8033851836483639,-10.846601173254335,0.9747507679827493
1.7549435217911427,-10.784904299839992,0.9992278994832317
1.718047540998337,-10.796537380349093,0.9742408277431559
1.694203199669653,-10.74771998892697,0.9869893337329905
1.6568052327436118,-10.795498712446495,0.9614923217533213
1.6570562258102295,-10.771609350686733,0.9497636962426735
1.6201602450174237,-10.795290978865976,0.9245216543828012
1.5955629244888865,-10.819180340625739,0.8995345826427255
1.5709656039603492,-10.819180340625739,0.8750574511422431
1.5586669436960807,-10.819595807786778,0.8385967240113164
1.5589179367626984,-10.807547260116637,0.838851694131113
1.559168929829316,-10.771193883525694,0.8516002001209476
1.522774935169746,-10.74688905460489,0.827378038740262
1.5232769213029813,-10.698071663182768,0.8643487061107821
1.4991815869076797,-10.673559100681446,0.8646036762305788
1.5117312402385659,-10.649254271760643,0.8893357778508578
1.5119822333051836,-10.612693161589181,0.9143228495909336
1.549380200231225,-10.553281357560554,0.9278362659401581
1.5742285138263798,-10.51734344813065,0.9530783078000306
1.586778167157266,-10.480990071539706,0.9780653795401063
1.6241761340833072,-10.42157826751108,0.9918337660091275
1.64927544074508,-10.373384076830515,1.0293143736192412
1.6741237543402347,-10.33786163456165,1.030334254098428
1.6866734076711212,-10.313556805640848,1.0553213258385037
1.6751277266067057,-10.253106333709622,1.0683248019481348
1.6753787196733234,-10.217168424279718,1.0568511465572838
1.675880705806559,-10.169597434340712,1.0333938955359883
1.6768846780730298,-10.098137082641944,0.9984629891238416
1.6771356711396475,-10.06261464037308,0.9747507679827493
1.6781396434061184,-9.978482540262611,0.9762805887015295
1.6909402898036225,-9.931742484645685,0.9168725507889004
1.6791436156725894,-9.88375602754564,0.9053988953980494
1.6678489276747916,-9.812087942266352,0.870213018866106
1.668601906874645,-9.752676138237725,0.8350271423341626
1.6568052327436118,-9.70448194755716,0.8238084570631082
1.6329608914149276,-9.656495490457115,0.7878576701717749
1.5968178898219751,-9.583996470855748,0.7644004191504793
1.5606748882290225,-9.547227627103766,0.764655389270276
1.5614278674288757,-9.463303260573817,0.7542016143586117
1.5250338727693054,-9.450423778581596,0.753946644238815
1.488639878109735,-9.413654934829614,0.7419630486083705
1.464795536781051,-9.35258126215683,0.7669501203484462
1.4286525351880985,-9.303556137154185,0.7794436562184841
1.4045572007927967,-9.266787293402203,0.7796986263382808
1.35561355280234,-9.254115544990503,0.7549665247180017
1.3684141991998442,-9.206544555051497,0.744002809566744
1.3194705512093874,-9.205505887148899,0.743237899207354
1.3320202045402738,-9.170191178460554,0.7197806481860584
1.3076738770783543,-9.157934897209893,0.7075420824358172
1.2710288893521664,-9.157311696468334,0.6950485465657794
1.2587302290878977,-9.157934897209893,0.6463492536846114
1.2341329085593604,-9.182031992550176,0.6093785863140913
1.2338819154927427,-9.206960022212536,0.5604243233131266
1.2085316157643524,-9.291299855903524,0.5224337754634196
1.2203282898953856,-9.328691900397066,0.46124094671221383
1.2198263037621502,-9.389350105908813,0.43599890485234144
1.2313719848265656,-9.438167497330936,0.41101183311226575
1.2552163261552496,-9.511289717673861,0.3857697912523933
1.2544633469553963,-9.583373270114189,0.3844949406534099
1.2414117074912745,-9.655249088973997,0.3832200900544264
1.228109074960535,-9.751637470335126,0.35695816771536726
1.2150574354964134,-9.811049274363754,0.36792188286662497
1.189707135768023,-9.906398987822284,0.3778657175386959
1.2010018237658207,-9.991154288674311,0.36435230118947126
1.2127984978968538,-10.027299931684736,0.37608092670011906
1.199746858432732,-10.111639765375724,0.3500739744808566
1.2233402066947983,-10.18455425213813,0.3370704983712254
1.2348858877592137,-10.257053271739496,0.3238120521417974
1.2469335549568645,-10.257053271739496,0.3360506178920386
1.2707778962855485,-10.31791921083176,0.32304714178240734
1.295124223747468,-10.330383225662942,0.3352857075326485
1.2707778962855485,-10.329967758501903,0.32304714178240734
1.2828255634831995,-10.354895788164264,0.29857001028192504
1.3194705512093874,-10.355726722486342,0.2990799505215184
1.2948732306808504,-10.367359802995445,0.28633144453168385
1.3074228840117366,-10.33142189356554,0.2993349206413151
1.3320202045402738,-10.33162962714606,0.3115734863915563
1.3445698578711602,-10.295483984135636,0.3368155282514287
1.3450718440043956,-10.246874326294032,0.3618025999915044
1.3824698109304367,-10.199303336355026,0.375316016340729
1.3829717970636723,-10.150693678513422,0.41254165383104585
1.432668424253982,-10.067184779144513,0.438803576170105
1.4334214034538353,-10.006734307213287,0.45206202239953297
1.4462220498513394,-9.946283835282062,0.48954263000964654
1.4718233426463474,-9.850103187501452,0.5280431180989469
1.460277661581932,-9.776773233578007,0.5775073213395049
1.4735802941126714,-9.679761651475319,0.6399750006896942
1.4989305938410618,-9.59521408420381,0.6904590844094389
1.4994325799742974,-9.546188959201167,0.7396683175302002
1.4883888850431173,-9.437128829428337,0.7776588653799072
1.5257868519691586,-9.36525301056853,0.8036658175991697
1.5388384914332804,-9.292753990967164,0.8416563654488767
1.5395914706331335,-9.232511252616456,0.8546598415585078
1.5772404306257926,-9.124489790746226,0.8936702698874016
1.5902920700899141,-9.06445478597604,0.9069287161168295
1.6156423698183047,-8.96785867103439,0.9574127998365743
1.6535423228775812,-8.884557505246,0.9594525607949478
1.6786416295393538,-8.824522500475814,0.9849495727746169
1.7037409362011267,-8.752023480874447,1.0351786863745651
1.704242922334362,-8.704037023774402,1.0359435967339552
1.7170435687318661,-8.655427365932798,1.085407799974513
1.704995901534215,-8.630914803431477,1.0856627700943098
1.6934502204697999,-8.581889678428833,1.1228884075846266
1.6811515602055311,-8.581681944848313,1.12263343746483
1.6809005671389134,-8.592691824615857,1.1708227901064046
1.6809005671389134,-8.592068623874297,1.2070285471175346
1.6563032466103762,-8.60287077006132,1.2429793340088682
1.64375359327949,-8.626344664660044,1.2544529893997192
1.6312039399486036,-8.649403092097728,1.2901488061712558
1.6309529468819859,-8.66124390618735,1.3018774316819037
1.6181523004844818,-8.707983961804276,1.3615404397143294
1.593303986889327,-8.742467736170543,1.408964881996514
1.6173993212846287,-8.778613379180966,1.432932073257403
1.6168973351513933,-8.81392808786931,1.4683729199091429
1.6166463420847754,-8.850073730879734,1.4678629796695495
1.5551530407634326,-8.87230122399534,1.4908102904512517
1.5057074066397405,-8.906784998361605,1.5137576012329539
1.4560107794494306,-8.965781335229194,1.511972810394377
1.407067131458974,-8.952278652495416,1.523446465785228
1.3699201575995505,-8.98717789402272,1.546648746686727
1.3332751698733625,-8.986139226120121,1.5581224020775781
1.2725348477518728,-8.947708513723981,1.6065667248389492
1.235638866959067,-8.946877579401903,1.6060567845993559
1.1992448722994966,-8.909070067747322,1.6545011073607272
1.1500502312424221,-8.932336228765527,1.6292590655008548
1.113405243516234,-8.919872213934346,1.616765529630817
1.052162935261509,-8.918625812451227,1.6040170236409823
0.9788729598091328,-8.91696394380707,1.6029971431617955
0.9301803048852939,-8.89182818056419,1.602742173041999
0.8448426622352669,-8.841764387658948,1.6024872029222024
0.7841023401137771,-8.804164609584886,1.61421582843285
0.6862150441328638,-8.789830992529028,1.6131959479536633
0.6126740756138701,-8.800217671555012,1.6119210973546798
0.576029087887682,-8.799179003652414,1.6236497228653277
0.5270854398972253,-8.785676320918634,1.6353783483759754
0.4781417919067687,-8.772796838926416,1.622629842386141
0.44124581111396294,-8.796270733525139,1.6096263662765096
0.4168994836520435,-8.783183517952398,1.6338485276571952
0.3677048425949691,-8.793777930558903,1.6570508085586941
0.35540618233070054,-8.804580076745925,1.7052401612002688
0.3305578687355456,-8.82784623776413,1.716458846471323
0.33005588260231017,-8.863368680032993,1.7399160974926187
0.25576193488346316,-8.945838911499305,1.7376213664144484
0.24321228155257685,-8.98094588660713,1.7730622130661884
0.2668056298146431,-9.053444906208497,1.7840259282174462
0.22965865595521961,-9.088344147735802,1.7949896433687038
0.2778493247458231,-9.149002353247548,1.8189568346295928
0.2891440127436208,-9.233342186938536,1.829665579661054
0.350386320998346,-9.246221668930756,1.854397681281333
0.3496333417984928,-9.318305221371084,1.8531228306823495
0.39832599672233177,-9.331392436943823,1.853632770921943
0.4465166655129352,-9.404930124447787,1.8408842649321082
0.4954603135033918,-9.418017340020528,1.8413942051717016
0.5564516286914993,-9.431520022754306,1.841904145411295
0.6179449300128423,-9.421341077308842,1.818701864509796
0.6668885780032989,-9.4103311975413,1.8197217449889829
0.7037845587961047,-9.411369865443898,1.8079931194783352
0.7529791998531791,-9.388519171586733,1.809012999957522
0.7647758739842122,-9.425080281758197,1.796519464087484
0.7652778601174477,-9.389765573069852,1.7608236473159473
0.7652778601174477,-9.389350105908813,1.785045808696633
0.777827513448334,-9.36566847772957,1.7735721533057818
0.7534811859864146,-9.35299672931787,1.7855557489362264
0.7411825257221459,-9.35216579499579,1.8095229401971153
0.7411825257221459,-9.340117247325649,1.809777910316912
0.7537321790530322,-9.328691900397066,1.7980492848062641
0.8149744873077575,-9.329938301880185,1.8110527609158955
0.9131127763552885,-9.296908662577556,1.7646481991128977
1.0360993789979744,-9.264086756855448,1.7427207688103823
1.146536328309774,-9.24331339880348,1.7082998026378289
1.2938692584143794,-9.21132242740345,1.6746437468246658
1.404306207726179,-9.201766682699546,1.6764285376632426
1.4778471762451728,-9.19158773725408,1.665464822511985
1.5267908242356294,-9.20529815356838,1.6417526013708927
1.5270418173022473,-9.168944776977437,1.6545011073607272
1.4903968295760592,-9.168529309816398,1.6297690057404481
1.4417041746522203,-9.131137265322856,1.6417526013708927
1.4299075005211872,-9.094160687990353,1.6787232687414129
1.3930115197283812,-9.117426849008556,1.677703388262226
1.3930115197283812,-9.117011381847517,1.6899419540124672
1.3558645458689578,-9.152533824116382,1.6766835077830393
1.3558645458689578,-9.14048527644624,1.6766835077830393
1.3312672253404205,-9.163959171044963,1.6759185974236492
1.3312672253404205,-9.152533824116382,1.6519514061627603
1.3807128594641127,-9.129683130259219,1.6409876910115027
1.3930115197283812,-9.118257783330636,1.6292590655008548
1.4542538279831065,-9.119711918394273,1.6300239758602448
1.5029464829069454,-9.133214601128053,1.6063117547191526
1.55214112396402,-9.12241245494103,1.6073316351983393
1.58853511862359,-9.16001223301509,1.5708709080674126
1.58853511862359,-9.171853047104712,1.570615937947616
1.6008337788878588,-9.16063543375665,1.546648746686727
1.600582785821241,-9.17268398142679,1.5463937765669302
1.5882841255569724,-9.184317061935893,1.5461388064471335
1.5882841255569724,-9.196573343186554,1.5339002406968925
1.5757344722260862,-9.208414157276176,1.533390300457299
1.5631848188951998,-9.244975267447638,1.4961646629669823
1.5634358119618175,-9.220670438526836,1.5089131689568167
1.5754834791594683,-9.245598468189197,1.4721974717060933
1.587782139423737,-9.245806201769716,1.47245244182589
1.6121284668856564,-9.258477950181417,1.47245244182589
1.5993278204881525,-9.306464407281462,1.4594489657162586
1.5990768274215346,-9.318720688532123,1.4469554298462208
1.5744795068929975,-9.342402316711365,1.4342069238563864
1.5988258343549169,-9.355281798703585,1.4222233282259418
1.586025187957413,-9.40326825580363,1.408964881996514
1.6103715154193323,-9.41573227063481,1.421203447746755
1.634466849814634,-9.452293380806273,1.4209484776269583
1.634466849814634,-9.452501114386793,1.4087099118767172
1.6339648636813986,-9.488231290236177,1.4201835672675682
1.62166620341713,-9.51232838557646,1.4076900313975305
1.608865557019626,-9.547643094264805,1.4308923122990294
1.6083635708863906,-9.60788583261551,1.417888836189398
1.63270989834831,-9.60830129977655,1.4301274019396393
1.619909251950806,-9.656080023296076,1.4291075214604525
1.644506572479343,-9.657118691198674,1.4053953003193602
1.656554239676994,-9.681215786538957,1.417123925830008
1.6560522535437585,-9.71694596238834,1.4285975812208591
1.6683509138080272,-9.71736142954938,1.4288525513406558
1.6558012604771408,-9.741250791309142,1.4161040453508211
1.6798965948724425,-9.778019635061124,1.4036105094807834
1.667597934608174,-9.778227368641645,1.379133377980301
1.6798965948724425,-9.791106850633865,1.3549112165996153
1.691442275936858,-9.840131975636508,1.3179405492290952
1.6909402898036225,-9.88894936705863,1.2807149117387784
1.7150356241989242,-9.925925944391134,1.256237780238296
1.7145336380656888,-9.986584149902878,1.2309957383784236
1.7260793191301043,-10.059290903084765,1.2054987263987544
1.724573360730398,-10.179984113366697,1.1792368040596954
1.736370034861431,-10.24126551962,1.1297726008191373
1.7476647228592286,-10.326228554052548,1.1042755888394682
1.7471627367259932,-10.374215011152593,1.1032557083602814
1.7712580711212949,-10.410568387743536,1.115239303990726
1.7469117436593755,-10.398104372912357,1.1149843338709293
1.7466607505927578,-10.42199373467212,1.114474393631336
1.7341110972618714,-10.445675362851361,1.1262030191419836
1.7338601041952537,-10.457516176940983,1.125948049022187
1.7095137767333342,-10.456892976199425,1.1376766745328348
1.7100157628665698,-10.408906519099379,1.1264579892617803
1.697968095668919,-10.384186223017538,1.1509351207622627
1.697968095668919,-10.3964425042682,1.1386965550120216
1.7105177489998051,-10.348871514329193,1.127477869740967
1.6982190887355366,-10.361127795579854,1.1030007382404847
1.7105177489998051,-10.374007277572074,1.066540011109558
1.6851674492714148,-10.44650629717344,1.0165658676294065
1.696964123402448,-10.483275140925423,0.9918337660091275
1.6962111442025947,-10.556397361268349,0.9421145926487728
1.719804492464661,-10.653824410532076,0.9043790149188626
1.7310991804624587,-10.726115696552924,0.9031041643198792
1.72984421512937,-10.847016640415374,0.8646036762305788
1.7044939154009797,-10.918061524953103,0.8872960168924843
1.7278362705964283,-11.026498453984374,0.9097333874345931
1.727334284463193,-11.0742771775039,0.9209520727056475
1.7019839847348024,-11.15737060971177,0.9433894432477563
1.7137806588658355,-11.181259971471533,0.9673566345086453
1.6645860178087613,-11.203487464587138,1.0025425110405886
1.664837010875379,-11.179182635666336,1.0150360469106265
1.6527893436777281,-11.166926354415676,1.0150360469106265
1.6655899900752322,-11.118316696574071,1.05251665452074
1.6291959954156618,-11.081755586402608,1.0405330588902955
1.5930529938227092,-11.021097380890863,1.0290594034994445
1.544611331965488,-10.972279989468738,1.0050922122385555
1.5089703165057708,-10.88814788935827,0.9696513655868154
1.4733293010460538,-10.791551774416622,0.9467040548051133
1.474082280245907,-10.720299156298372,0.8997895527625221
1.4384412647861897,-10.624118508517762,0.8646036762305788
1.439194243986043,-10.552450423238476,0.8416563654488767
1.4404492093191317,-10.445259895690322,0.7830132378956377
1.429154521321334,-10.373591810411034,0.7480823314834911
1.4173578471903008,-10.326644021213587,0.6759257875810275
1.406063159192503,-10.243135121844679,0.6290112855384364
1.4188638055900071,-10.208028146736853,0.5935704388866964
1.3824698109304367,-10.172297970887469,0.5331425204948806
1.38322279013029,-10.101045352769221,0.498211614082734
1.3711751229326392,-10.089620005840638,0.4497672913213627
1.371426115999257,-10.066146111241915,0.4138165044300293
1.3222314749421824,-10.090243206582198,0.35211373543923014
1.3101838077445316,-10.090035473001677,0.35211373543923014
1.2973831613470275,-10.1261811160121,0.32687169357935775
1.2971321682804098,-10.150693678513422,0.3023945620788754
1.3091798354780606,-10.174790773853704,0.3141231875895232
1.308928842411443,-10.211144150444648,0.3013746815996886
1.3335261629399802,-10.199511069935546,0.3141231875895232
1.345573830137631,-10.211975084766728,0.301884621839282
1.382218817863819,-10.212806019088806,0.3023945620788754
1.3945174781280876,-10.225270033919987,0.29015599632863426
1.443712119185162,-10.202627073643342,0.27919228117737654
1.4680584466470814,-10.215506555635562,0.26720868554693206
1.5049544274398872,-10.204704409448539,0.2437514345256365
1.5415994151660752,-10.205743077351137,0.2322777791347854
1.5418504082326931,-10.193902263261515,0.22029418350434093
1.578746389025499,-10.171051569404352,0.20907549823328653
1.5907940562231497,-10.195979599066712,0.17261477110235973
1.6274390439493378,-10.209066814639451,0.16063117547191527
1.6517853714112571,-10.22236176379271,0.12442541846078516
1.6881793660708275,-10.247705260616112,0.10045822719989621
1.712525693532747,-10.26058474260833,0.08847463156945173
1.736370034861431,-10.333706962951256,0.06323258970957935
1.7481667089924642,-10.37026807312272,0.0504840837197448
1.7597123900568796,-10.443390293465646,0.013003476109631236
1.7835567313855636,-10.492415418468289,-0.01172862551064778
1.7825527591190926,-10.589219266990458,-0.049719173360354724
1.7820507729858572,-10.649462005341164,-0.06297761958978265
1.7572024593907023,-10.685192181190548,-0.07598109569941389
1.756700473257467,-10.733594105451632,-0.08898457180904512
1.7444018129931982,-10.72175329136201,-0.11320673318973076
1.7321031527289297,-10.746058120282813,-0.13793883481000976
1.719804492464661,-10.73400957261267,-0.14992243044045425
1.731601166595694,-10.782826964034795,-0.17490950218052995
1.7195534993980433,-10.770986149945173,-0.1991316635612156
1.6947051858028883,-10.807131792955596,-0.23635730105153246
1.670358858340969,-10.794875511704936,-0.26083443255201477
1.6580601980767005,-10.806924059375078,-0.27332796842205265
1.645510544745814,-10.8187648734647,-0.27358293854184934
1.6214152103505124,-10.794252310963378,-0.2855665341722938
1.6091165500862437,-10.806300858633518,-0.29806007004233165
1.560172902095787,-10.793629110221818,-0.32279217166261065
1.5606748882290225,-10.757483467211395,-0.3220272613032206
1.5360775677004854,-10.769324281301015,-0.33477576729305514
1.5237789074362167,-10.756860266469836,-0.33477576729305514
1.5112292541053305,-10.80484672356988,-0.3357956477722419
1.461281633848403,-10.888355622938791,-0.37429613586154226
1.411585006658093,-10.948182894128458,-0.41228668371124916
1.3370400658726282,-11.043324874006467,-0.4512971120401429
1.299642098946587,-11.102736678035095,-0.4650654985091642
1.2261011304275933,-11.1260028390533,-0.5150396419893156
1.189707135768023,-11.101282542971457,-0.5150396419893156
1.1651098152394859,-11.100659342229898,-0.5152946121091123
1.1171701395155,-11.015696307797352,-0.5265132973801667
1.105373465384467,-10.954830368705087,-0.501526225640091
1.0694814568581321,-10.89417216319334,-0.5129998810309421
1.0697324499247498,-10.857818786602397,-0.5002513750411075
1.0338404413984148,-10.785112033420512,-0.5114700603121619
1.0348444136648858,-10.700979933310043,-0.5099402395933818
1.023549725667088,-10.616640099619055,-0.5086653889943983
1.0002073704716397,-10.507579969846224,-0.49489700252537705
1.0009603496714927,-10.423447869735757,-0.4933671818065969
1.0147649683354676,-10.290913845364203,-0.45435675347770316
1.0408682472637112,-10.147369941225108,-0.46353567779038407
1.0421232125967999,-10.026884464523697,-0.44925735108176934
1.080525151789312,-9.8833405603846,-0.4342141140137646
1.1307237651128572,-9.776357766416968,-0.431409442696001
1.1811733715030204,-9.645485610689573,-0.44058836700868187
1.2311209917599477,-9.55055136439208,-0.4502772315609561
1.2569732776215736,-9.418848274342606,-0.43548896461274805
1.2948732306808504,-9.310619078891856,-0.3964785362838543
1.3325221906735092,-9.239366460773606,-0.3946937454452775
1.3699201575995505,-9.17974692316446,-0.36894176334581175
1.4193657917232425,-9.120127385555312,-0.3309512154961048
1.4196167847898604,-9.09561482305399,-0.3062191138758258
1.419867777856478,-9.083150808222811,-0.2817419823753434
1.4565127655826662,-9.071725461294228,-0.2689934763855089
1.493408746375472,-9.072348662035788,-0.25649994051547104
1.5182570599706269,-9.036618486186404,-0.2432414942860431
1.5554040338300503,-8.988839762666878,-0.21774448230637403
1.5925510076894738,-8.965365868068154,-0.2047410061967428
1.6176503143512464,-8.905330863297968,-0.17898902409727702
1.617901307417864,-8.881441501538205,-0.17847908385768363
1.6552992743439054,-8.821406496768018,-0.14074350612777337
1.6798965948724425,-8.809565682678398,-0.11601140450749435
1.692446248203329,-8.774043240409533,-0.12723008977854874
1.7295932220627523,-8.73852079814067,-0.11397164354912083
1.7421428753936388,-8.714839169961426,-0.11346170330952744
1.791337516450713,-8.691157541782182,-0.07598109569941389
1.8038871697815995,-8.655635099513319,-0.08719978097046828
1.841034143641023,-8.619904923663935,-0.061957739110595884
1.8535837969719091,-8.58417474781455,-0.060937858631409124
1.9030294310956013,-8.548652305545685,-0.035440846651740035
1.9158300774931054,-8.50045811486512,-0.010198804791867636
1.9524750652192935,-8.51312986327682,0.002039760958373527
1.9650247185501797,-8.476776486685878,0.027281802818245927
1.964773725483562,-8.50066584844564,0.03875545820909702
2.00141871320975,-8.512714396115781,0.0754711554598205
1.9888690598788636,-8.536603757875545,0.07496121522022713
2.0009167270765147,-8.536188290714504,0.11142194235115392
2.013215387340783,-8.548029104804126,0.13538913361204286
2.0009167270765147,-8.535980557133986,0.1234055379815984
2.013466380407401,-8.511883461793703,0.13615404397143294
2.00141871320975,-8.499627180543042,0.13615404397143294
2.0011677201431324,-8.511260261052144,0.16012123523232188
1.9765703996145951,-8.522685607980726,0.1596112949927285
1.9891200529454813,-8.499003979801483,0.16012123523232188
2.0011677201431324,-8.511052527471625,0.17235980098256304
2.0011677201431324,-8.510637060310584,0.18434339661300753
2.038063700935938,-8.511052527471625,0.20907549823328653
2.06215903533124,-8.534734155650867,0.2575198209946578
2.1111026833216964,-8.535149622811906,0.294490488365178
2.123401343585965,-8.522685607980726,0.3312061856159015
2.1843926587740725,-8.548029104804126,0.3436997214859393
2.2089899793026095,-8.535980557133986,0.36843182310621836
2.258184620359684,-8.524555210205403,0.40565746059653524
2.307128268350141,-8.512922129696301,0.44288309808685206
2.331725588878678,-8.51333759685734,0.44313806820664875
2.3437732560763287,-8.525386144527483,0.45512166383709324
2.3437732560763287,-8.52600934526904,0.4308995024564076
2.417063231528705,-8.551976042834,0.4194258470655565
2.4411585659240065,-8.576696338915841,0.40718728131531534
2.4780545467168125,-8.566309659889857,0.3714914645437786
2.5026518672453495,-8.567763794953496,0.32355708202200073
2.563894175500075,-8.557169382346991,0.3245769625011875
2.625387476821418,-8.534526422070348,0.325851813100171
2.6989284453404117,-8.536188290714504,0.32687169357935775
2.7604217466617547,-8.51312986327682,0.34013013980878565
2.82166405491648,-8.502950917831356,0.31692785890728675
2.8706077029069363,-8.503989585733954,0.329931335016918
2.9075036836997423,-8.504820520056034,0.3304412752565114
2.9928413263497693,-8.530164016879434,0.3674119426270316
3.0540836346044946,-8.543251232452175,0.3801604486168661
3.127624603123488,-8.52019280501449,0.41789602634677636
3.1396722703211393,-8.531825885523592,0.45410178335790646
3.176568251113945,-8.519154137111892,0.5275331778593535
3.176568251113945,-8.506274655119672,0.5759775006207247
3.1888669113782133,-8.505443720797594,0.6369153592521338
3.1886159183115956,-8.516453600565136,0.6851047118937085
3.1640185977830586,-8.527048013171639,0.7327841242956896
3.15171993751879,-8.538057892939182,0.7687349111870231
3.1391702841879034,-8.561116320376867,0.8044307279585597
3.1389192911212858,-8.572541667305448,0.8406364849696899
3.1017723172618625,-8.607233175252233,0.8635837957513921
3.1135689913928957,-8.642963351101619,0.8995345826427255
3.1007683449953913,-8.702167421549726,0.9224818934244277
3.125114672457311,-8.702167421549726,0.9591975906751511
3.1487080207193774,-8.786507255240714,0.9699063357066121
3.172803355114679,-8.822652898251137,0.9938735269675011
3.2207430308386646,-8.907615932683685,1.0173307779887966
3.2694356857625038,-8.944384776435667,1.0293143736192412
3.280981366826919,-9.004627514786373,1.0405330588902955
3.304825708155603,-9.053029439047457,1.0522616844009434
3.3163713892200186,-9.113064443817644,1.063225399552201
3.340717716681938,-9.125943925809864,1.0512418039217566
3.352514390812971,-9.161674101659248,1.08719259081309
3.339964737482085,-9.209452825178772,1.0861727103339032
3.339713744415467,-9.233134453358016,1.097901335844551
3.339462751348849,-9.245183001028158,1.0976463657247544
3.3392117582822314,-9.269280096368439,1.097136425485161
3.3389607652156137,-9.292753990967164,1.1208486466262533
3.3384587790823783,-9.329107367558105,1.1081001406364186
3.3628051065442977,-9.341155915228248,1.132577272136901
3.3748527737419485,-9.36525301056853,1.1443058976475486
3.374601780675331,-9.389350105908813,1.1437959574079553
3.374601780675331,-9.388934638747772,1.168018118788641
3.3991991012038683,-9.376678357497111,1.204988786159161
3.411246768401519,-9.388519171586733,1.2292109475398467
3.4235454286657876,-9.376678357497111,1.2417044834098847
3.45968843025874,-9.425288015338715,1.2534331089205324
3.4845367438538952,-9.401606387159473,1.266181614910367
3.5088830713158146,-9.426118949660795,1.266181614910367
3.5091340643824322,-9.402229587901031,1.2664365850301638
3.4968354041181637,-9.401606387159473,1.2784201806606081
3.5088830713158146,-9.414485869151692,1.2541980192799225
3.521181731580083,-9.402645055062072,1.2547079595195159
3.4970863971847814,-9.391011974552969,1.2060086666383478
3.4363460750632915,-9.330769236202263,1.1458357183663288
3.3264111118847275,-9.330769236202263,1.0112114951136761
3.167281507649089,-9.316643352726926,0.9245216543828012
2.947160588225343,-9.301478801348988,0.824828337542295
2.6662993466801073,-9.24975313979959,0.6766906979404176
2.4705247547182805,-9.247468070413873,0.565013785469467
2.3477891451422126,-9.258685683761936,0.45410178335790646
2.3236938107469105,-9.247675803994394,0.36919673346560844
2.3477891451422126,-9.273019300817793,0.3327360063346816
2.421581106727824,-9.24975313979959,0.38271014981483303
2.568412050699194,-9.263671289694408,0.4571614247954668
2.7393383290658657,-9.290676655161967,0.5073905383954149
2.971506915687262,-9.329730568299665,0.63105104649681
3.2154721764396923,-9.41614773779585,0.8023909670001862
3.4594374371921224,-9.478883279112791,0.9620022619929147
3.6913550307469016,-9.541826554010253,1.097136425485161
3.8868786296421103,-9.580049532825875,1.2202869933469627
4.057804908008782,-9.617649310899935,1.342927620969171
4.168241857320582,-9.581088200728473,1.5025389159618994
4.205137838113387,-9.54452709055701,1.5762252805831432
4.168743843453817,-9.518144925831011,1.6488917647252
4.168743843453817,-9.505265443838791,1.697591057606368
4.107501535199092,-9.514821188542696,1.756999095518997
4.083155207737173,-9.489269958138776,1.8054434182803683
4.218189477577509,-9.45478618377251,1.880659603620392
4.328877419955926,-9.420925610147803,1.9069215259594512
4.3906217143438875,-9.349257524868515,1.9576605797989928
4.3667773730152035,-9.28797611861521,1.994631247169513
4.269894049300761,-9.189302667868365,2.0071247830395507
4.185811371983823,-9.029140077287694,2.10579821940087
4.1112664311983576,-9.151287422633263,1.9209448825482691
4.0620717901412835,-9.174138116490429,1.9199250020690823
3.9400891597650682,-9.123658856424147,1.8946829602092101
3.8913965048412296,-9.098938560342306,1.8704607988285245
3.8667991843126925,-9.124074323585186,1.7847908385768363
3.8537475448485705,-9.197196543928111,1.7228330994662404
3.8040509176582606,-9.269280096368439,1.6603654201160511
3.7428086094035353,-9.267618227724283,1.6715841053871054
3.730509949139267,-9.279666775394423,1.6590905695170677
3.7428086094035353,-9.266995026982723,1.7080448325180322
3.8035489315250253,-9.303763870734706,1.7445055596489591
3.9011852344393207,-9.341779115969807,1.7572540656387936
3.949626896296542,-9.391011974552969,1.756999095518997
4.0224148856156825,-9.453124315128353,1.7327769341383112
4.046510220010984,-9.490724093202413,1.6840776412571434
4.070605554406286,-9.539956951785577,1.647106973886623
4.045506247744513,-9.58856660962718,1.5973878005262685
4.0573029218755465,-9.638214935371384,1.524211376144618
4.056800935742311,-9.674568311962327,1.5114628701547836
4.068597609873344,-9.73605745179615,1.4500150712837812
4.04374929627819,-9.772203094806574,1.4125344636736676
4.067342644540256,-9.84574078231054,1.3633252305529062
4.030195670680833,-9.905983520661245,1.313096116952958
4.004845370952442,-9.96622625901195,1.2753605392230478
3.906456088838293,-10.012966314628878,1.2248764555033032
3.795517153393258,-10.083595732005568,1.1736274614241682
3.647682237155417,-10.1652350291498,1.1216135569856431
3.536743301710382,-10.247497527035591,1.0823481585369528
3.3889083854725413,-10.329967758501903,0.9941284970872978
3.26541979669662,-10.424486537638355,0.9301309970183284
3.1052862201945106,-10.506125834782587,0.8658785268295622
2.9328539834281324,-10.599813679596961,0.7891325207707584
2.79731772745456,-10.693709257991854,0.7371186163322334
2.6130888165571493,-10.751043726215284,0.6608825505130228
2.4650029072526904,-10.845354771771218,0.5846464846938122
2.341514318476769,-10.94028901806871,0.49642682324415716
2.2551727035602713,-11.011126169025918,0.4576713650350602
2.1806277627748067,-11.10585268174289,0.4426281279670554
2.129927163318026,-11.261237399971607,0.4270749506594572
2.1530185254468566,-11.381930610253539,0.4252901598208804
2.176360880642305,-11.50262382053547,0.42350536898230356
2.2120018961020222,-11.599635402638159,0.4222305183833201
2.2842878992879276,-11.697270185482406,0.4334492036543745
2.345530207542653,-11.698308853385004,0.44645267976400577
2.419573162194882,-11.651776531348597,0.46047603635282375
2.469269789385192,-11.59257246090049,0.47424442282184504
2.519719395775355,-11.449444023922434,0.47755903437920205
2.5332730213727124,-11.328958547221022,0.5040759268380579
2.5101816592438815,-11.19600905568843,0.5183542535466726
2.4632459557863666,-11.026913921145415,0.5086653889943983
2.3422672976766226,-10.881084947620602,0.44900238096197265
2.2094919654358454,-10.723207426425649,0.3773557772991025
2.0275219921379937,-10.551619488916396,0.3296763648971213
1.8337553447091088,-10.367567536575963,0.2939805481255846
1.676633685006412,-10.183515584235531,0.3069840242352158
1.4944127186419427,-10.034986074163964,0.3072389943550125
1.4231306877225085,-9.840547442797547,0.33401085693366506
1.387740665329409,-9.706767016942877,0.372001404783372
1.4138439442576527,-9.562599912062222,0.4112668032320624
1.4028002493264726,-9.453539782289392,0.4372737554513249
1.428150549054863,-9.357151400928263,0.4880128092908664
1.429154521321334,-9.271980632915195,0.5377319826512211
1.4173578471903008,-9.234796322002174,0.5866862456521857
1.4545048210497242,-9.18618666416057,0.6608825505130228
1.478600155445026,-9.222540040751513,0.6726111760236706
1.5270418173022473,-9.258685683761936,0.7210554987850418
1.501440524507239,-9.353827663639947,0.743237899207354
1.4881378919764996,-9.44917737709848,0.7776588653799072
1.425389625322068,-9.579218598503795,0.8105500108336804
1.3631433448008718,-9.685993658890908,0.8077453395159168
1.2637500904202523,-9.816242613876746,0.7919371920885219
1.2012528168324383,-9.935066221934,0.7888775506509617
1.151054203508893,-10.03020820181201,0.7743442538225502
1.1257039037805028,-10.11392483476144,0.7725594629839734
1.1124012712497633,-10.22236176379271,0.7340589748946731
1.110895312850057,-10.343054974074642,0.7077970525556139
1.146536328309774,-10.45232283742799,0.6942836362063893
1.1578310163075718,-10.54933441953068,0.6562930883566823
1.181424364569638,-10.623287574195684,0.5948452894856798
1.1806713853697848,-10.695994327377571,0.5571097117557696
1.204264733631851,-10.793836843802337,0.4951519726451737
1.2155594216296488,-10.879215345395924,0.445432799284819
1.239152769891715,-10.965632514892109,0.35950786891333414
1.3001440850798225,-10.99139147887655,0.3355406776524452
1.3239884264085067,-11.053503819451933,0.26236425327079493
1.3608844072013124,-11.04270167326491,0.23865203212970268
1.3977803879941182,-11.032522727819446,0.19097261972772148
1.41083202745824,-10.973318657371337,0.15604171331557481
1.4605286546485496,-10.914530054084269,0.1455879384039105
1.4856279613103223,-10.84348516954654,0.1231505678618017
1.5232769213029813,-10.759976270177631,0.1371739244506197
1.561176874362258,-10.66400335597754,0.17567441253992003
1.5870291602238837,-10.54372561285665,0.21468484086881373
1.6249291132831605,-10.435911884566938,0.2412017333276696
1.6628290663424372,-10.315634141446045,0.29245072740680444
1.6884303591374452,-10.206989478834254,0.3431897812463459
1.7019839847348024,-10.098552549802983,0.38169026933564626
1.7152866172655419,-9.977651605940533,0.43242932317518773
1.704242922334362,-9.881470958159923,0.4217205781437267
1.7175455548651015,-9.772826295548134,0.46022106623302705
1.7065018599339215,-9.663973899355822,0.4862280184522895
1.7446528060598159,-9.54452709055701,0.48903268977005315
1.7825527591190926,-9.436713362267298,0.515549582228909
1.784058717518799,-9.304179337895745,0.5423214448075615
1.8096600103138072,-9.184317061935893,0.5568547416359729
1.8355122961754329,-9.06445478597604,0.5713880384643842
1.84906592177279,-8.95581012336425,0.6098885265536846
1.8377712337749925,-8.84737319433298,0.6116733173922615
1.8633725265700005,-8.763656561383549,0.6256966739810794
1.8764241660341223,-8.67931672769256,0.651703626200342
1.8651294780363246,-8.594353693260015,0.677200638180011
1.9027784380289836,-8.498588512640444,0.7037175306388669
1.9155790844264875,-8.450602055540399,0.7167210067484981
1.940929384154878,-8.378310769519551,0.754711554598205
1.917085042826194,-8.317444830427286,0.7677150307078363
1.9544830097522352,-8.258033026398659,0.7812284470570608
1.954734002818853,-8.221471916227197,0.8062155187971366
1.9918809766782763,-8.185741740377813,0.831457560657009
2.0167292902734313,-8.162060112198569,0.8444610367666402
2.0167292902734313,-8.14959609736739,0.8689381682671226
2.0413266108019683,-8.137963016858286,0.8814317041371604
2.0413266108019683,-8.150219298108947,0.8691931383869193
2.065923931330506,-8.138378484019325,0.8819416443767538
2.077720605461539,-8.18698814186093,0.8689381682671226
2.1018159398568406,-8.199036689531072,0.8934152997676049
2.1256602811855245,-8.259487161462298,0.9046339850386593
2.161803282778477,-8.332609381805224,0.9038690746792692
2.2222926118333493,-8.381842240388385,0.9158526703097137
2.258184620359684,-8.454548993570272,0.9273263257005647
2.3312236027454425,-8.516038133404097,0.9393099213310092
2.3914619387336966,-8.588952620166502,0.9630221424721015
2.451951267788569,-8.66186710692891,0.9987179592436383
2.4998909435125545,-8.758670955451077,1.021920240145137
2.5970252602936146,-8.832416376535562,1.0583809672760638
2.66931126347952,-8.941891973469431,1.0693446824273216
2.7172509392035056,-9.03911128915264,1.0683248019481348
2.728796620267921,-9.087305479833203,1.0797984573389858
2.7403423013323365,-9.14775595176443,1.0787785768597993
2.7157449808037994,-9.171229846363152,1.0780136665004092
2.6668013328133426,-9.170814379202113,1.0410429991298888
2.617857684822886,-9.169567977718994,1.0405330588902955
2.5689140368324295,-9.157103962887815,1.0035623915197753
2.5202213819085904,-9.144432214476115,0.9790852600192931
2.495875054446671,-9.132383666805973,0.9546081285188107
2.4956240613800533,-9.144639948056634,0.9423695627685695
2.5202213819085904,-9.133422334708571,0.9308959073777184
2.495875054446671,-9.120542852716351,0.9428795030081629
2.545320688570363,-9.085435877608527,0.9561379492375909
2.5578703419012494,-9.061546515848764,0.9688864552274254
2.582969648563022,-8.989670696988956,0.9826548416964467
2.6080689552247946,-8.94209970704995,0.9839296922954301
2.657514589348487,-8.895151917852504,0.9854595130142103
2.6703152357459907,-8.847165460752459,0.9984629891238416
2.6587695546815753,-8.786922722401753,0.9872443038527872
2.6592715408148107,-8.738313064560149,1.024469941343104
2.684119854409966,-8.689911140299065,1.0741891147034588
2.6971714938740874,-8.62946066836784,1.099686126683128
2.7220198074692425,-8.580851010526235,1.1613888956739271
2.7714654415929343,-8.533072287006709,1.2113630391540784
2.821162068783244,-8.473245015817042,1.2493535870037853
2.882655370104587,-8.437514839967658,1.3115662962341779
2.919802343964011,-8.413210011046857,1.3730140951051804
2.9935943055496224,-8.377687568777992,1.4352268043355731
3.079182941266267,-8.37872623668059,1.484691007576131
3.128628575389959,-8.330532046000027,1.546648746686727
3.1778232164470337,-8.306642684240263,1.5963679200470817
3.2390655247017586,-8.29563280447272,1.6216099619069542
3.3008098190897193,-8.248061814533715,1.6715841053871054
3.3377057998825252,-8.248685015275274,1.6843326113769401
3.36255411347768,-8.20007535743367,1.733796814617498
3.3751037668085666,-8.176601462834947,1.722323159226647
3.3999520804037213,-8.140248086244004,1.771787362467205
3.424800393998876,-8.104725643975138,1.7728072429463917
3.449648707594031,-8.068787734545236,1.7980492848062641
3.4621983609249174,-8.044275172043914,1.8350199521767843
3.4872976675866902,-7.984032433693208,1.8727555299066947
3.5244446414461135,-7.949133192165902,1.8617918147554369
3.536994294777,-7.913195282735998,1.862556725114827
3.5620936014387725,-7.853575745126851,1.8760701414640515
3.56234459450539,-7.84131946387619,1.8883087072142928
3.587443901167163,-7.793540740356665,1.9018221235635173
3.5876948942337807,-7.769235911435863,1.9143156594335553
3.538751246243324,-7.744100148192982,1.9140606893137586
3.526954572112291,-7.707539038021519,1.9265542251837964
3.490309584386103,-7.70691583727996,1.9140606893137586
3.465963256924183,-7.6946595560293,1.9018221235635173
3.4047209486694583,-7.692789953804622,1.925279374584813
3.4047209486694583,-7.692997687385142,1.9130408088345718
3.343478640414733,-7.691751285902024,1.9000373327249405
3.294534992424276,-7.678456336748765,1.9117659582355884
3.2824873252266253,-7.666200055498104,1.9117659582355884
3.2822363321600077,-7.690089417257867,1.9115109881157917
3.3068336526885447,-7.678456336748765,1.9240045239858294
3.3311799801504645,-7.691128085160465,1.9242594941056261
3.355526307612384,-7.715432914081267,1.9362430897360707
3.3550243214791484,-7.763419371181312,1.935223209256884
3.3424746681482618,-7.7754679188514535,1.922729673386846
3.3547733284125307,-7.787724200102114,1.922729673386846
3.366570002543564,-7.812029029022916,1.9224747032670493
3.366068016410328,-7.859600018961922,1.9459319542883449
3.353518363079442,-7.883281647141165,1.957405609679196
3.377362704408126,-7.955988400323051,1.9563857292000093
3.426055359331965,-7.9690756158957905,1.9568956694396027
3.511142008915374,-8.043028770560795,1.956640699319806
3.6082763256964343,-8.105141111136177,1.968879265070047
3.7174583096751452,-8.204022295463544,1.956640699319806
3.790246298994286,-8.266134636038927,1.9444021335695647
3.887380615775346,-8.352967272696151,1.9199250020690823
3.959666618961251,-8.451017522701438,1.9071764960792479
3.9958096205542035,-8.524970677366442,1.8457286972082454
4.01940296881627,-8.598923832031447,1.784280898337243
4.04374929627819,-8.636731343686028,1.7235980098256305
4.042745324011719,-8.722525312440654,1.6251795435841077
4.055043984275987,-8.736443462335473,1.5402744936918096
4.079139318671289,-8.76261789348095,1.4553694437995117
4.09118698586894,-8.800217671555012,1.3944315851681024
4.115031327197624,-8.849658263718695,1.345477322167138
4.102481673866738,-8.886842574631718,1.2720459276656908
4.138373682393072,-8.973052010547383,1.2105981287946883
4.125071049862333,-9.069232658327993,1.1965747722058704
4.123816084529244,-9.190756802932002,1.1216135569856431
4.134859779460424,-9.299401465543793,1.107845170516622
4.15845312772249,-9.384987700717899,1.0581259971562673
4.181544489851321,-9.530401207081672,1.0196255090669668
4.18054051758485,-9.615571975094738,0.9696513655868154
4.179787538384997,-9.688278728276625,0.9319157878569052
4.154437238656607,-9.760154547136432,0.9181474013878839
4.153684259456754,-9.84470211440794,0.8923954192884181
4.214173588511626,-9.906191254241765,0.8921404491686215
4.274662917566498,-9.980144408906769,0.8674083475483424
4.371797234347558,-10.066561578402954,0.8674083475483424
4.506078524988041,-10.093774677451032,0.8566996025168814
4.566316860976296,-10.179776379786178,0.8317125307768057
4.651403510559705,-10.24188872036156,0.8317125307768057
4.6747458657551535,-10.351156583714909,0.8059605486773399
4.69833921401722,-10.447752698656558,0.8044307279585597
4.733729236410319,-10.56865364251901,0.8148845028702241
4.75682059853915,-10.702018601212641,0.7766389849007205
4.7676133004037125,-10.822504077914052,0.7745992239423469
4.77890798840151,-10.90684391160504,0.7730694032235668
4.803003322796812,-10.943612755357025,0.7728144331037701
4.827349650258731,-10.967917584277826,0.7847980287342146
4.851444984654033,-10.992637880359668,0.7725594629839734
4.864245631051537,-10.945066890420662,0.7615957478327157
4.827851636391967,-10.90829804666868,0.7615957478327157
4.816305955327551,-10.860103855988115,0.7503770625616613
4.743266972941793,-10.822711811494573,0.7378835266916235
4.645630670027497,-10.785112033420512,0.7009128593211033
4.53594669991555,-10.74688905460489,0.6759257875810275
4.413964069539336,-10.697448462441209,0.6024943930795805
4.317080745824893,-10.611654493686583,0.578272231698895
4.195098115448679,-10.5622139015229,0.4928572415670035
4.17175576025323,-10.46582552016177,0.4821484965355425
4.098967770934089,-10.404751847488987,0.4459427395244124
4.0756254157386405,-10.308363466127856,0.43523399449295136
4.039733407212306,-10.224023632436868,0.40004811796100803
3.9669454178931653,-10.174790773853704,0.37557098646052567
3.9182527629693262,-10.125557915270543,0.37582595658032236
3.8703130872453406,-10.040179413676956,0.37659086693971244
3.83391909258577,-10.015459117595114,0.37659086693971244
3.834421078719006,-9.954593178502849,0.414071474549826
3.834421078719006,-9.96622625901195,0.43803866581071493
3.822122418454737,-9.965603058270391,0.4500222614411594
3.858767406180925,-9.978067073101572,0.47449939294164173
3.809321772057233,-10.000710033378217,0.48546310809289944
3.7844734584620783,-10.03623247564708,0.4844432276137127
3.7591231587336877,-10.12036457575755,0.4584362753944502
3.734274845138533,-10.143630736775753,0.4696549606655046
3.7222271779408818,-10.131374455525092,0.4576713650350602
3.6732835299504254,-10.130751254783533,0.4326842932949844
3.6491881955551237,-10.09398241103155,0.4451778291650223
3.62534385422644,-10.045580486770467,0.4337041737741712
3.6014995128977554,-9.973289200749619,0.41050189287267236
3.614802145428495,-9.88998803496123,0.38780955221076685
3.590957804099811,-9.829953030191044,0.35236870555902683
3.6163081038282012,-9.759323612814354,0.3054542035164357
3.5678664419709802,-9.723177969803931,0.2570098807550644
3.5683684281042156,-9.664181632936343,0.19760184284243545
3.5691214073040687,-9.616610642997337,0.17439956194093656
3.5206797454468477,-9.568000985155733,0.13819380492980646
3.521181731580083,-9.508173713966066,0.12723008977854874
3.472740069722862,-9.459148588963423,0.11524649414810428
3.448895728394178,-9.39807491629064,0.14023356588817998
3.4125017337346075,-9.373354620208797,0.14023356588817998
3.425302380132112,-9.324537228786673,0.18969776912873804
3.3761077390750374,-9.334923907812657,0.2129000500302369
3.3640600718773865,-9.310619078891856,0.2134099902698303
3.3274150841511982,-9.309580410989257,0.22488364566068136
3.2779694500275065,-9.356528200186704,0.22335382494190123
3.2779694500275065,-9.356735933767222,0.21137022931145674
3.216225155639546,-9.40368372296467,0.19734687272263876
3.228021829770579,-9.427780818304951,0.20933046835308322
3.203173516175424,-9.463510994154337,0.1960720221236553
3.1906238628445376,-9.4990334364232,0.2075456775145064
3.1775722233804156,-9.558860707612867,0.20627082691552293
3.1647715769829117,-9.618687978802534,0.20499597631653949
3.115576935925837,-9.642161873401257,0.17975393445666707
3.0658803087355277,-9.701781411010405,0.14150841648716345
3.053581648471259,-9.714245425841584,0.10479271923643996
3.028733334876104,-9.762647350102668,0.05532851599588193
2.9915863610166804,-9.798585259532572,0.01784790838576836
2.9300930596953374,-9.821851420550777,-0.01988766934414189
2.9300930596953374,-9.835354103284555,-0.09280912360599548
2.892946085835914,-9.859451198624837,-0.14201835672675683
2.8437514447788397,-9.88375602754564,-0.2157047213480005
2.8073574501192695,-9.871707479875498,-0.2644040142291685
2.794556803721765,-9.920732604878141,-0.32610678321996767
2.7825091365241144,-9.90930725794956,-0.3745511059813389
2.7825091365241144,-9.92197900636126,-0.41101183311226575
2.7830111226573497,-9.874200282841734,-0.4222305183833201
2.8073574501192695,-9.874408016422255,-0.3977533868828378
2.7953097829216187,-9.849895453920933,-0.3974984167630411
2.795811769054854,-9.801078062498808,-0.3480342135224831
2.7717164346595524,-9.763893751585787,-0.32355708202200073
2.7970667343879425,-9.69139473198442,-0.27358293854184934
2.809867380785447,-9.643616008464894,-0.27256305806266257
2.835217680513837,-9.547227627103766,-0.22207897434291776
2.848018326911341,-9.49882570284268,-0.19658196236324868
2.8244249786492746,-9.414278135571173,-0.1955620818840619
2.849775278377665,-9.329730568299665,-0.14533296828411382
2.850779250644136,-9.245598468189197,-0.14380314756533366
2.8274368954486877,-9.14796368534495,-0.09382900408518224
2.85253620211046,-9.076295600065661,-0.09229918336640211
2.8778865018388506,-8.991955766374673,-0.041815099646657305
2.9032368015672407,-8.920703148256424,-0.0645074403085628
2.9529334287575506,-8.861083610647277,-0.026516892458855853
2.978283728485941,-8.789415525367989,-0.012748505989834544
3.002881049014478,-8.764902962866667,0.036460727130926796
3.0528286692714057,-8.682432731400356,0.01453329682841138
3.0651273295356742,-8.669968716569176,0.05124899407913487
3.1145729636593664,-8.62302092737173,0.05277881479791501
3.1145729636593664,-8.62302092737173,0.05277881479791501
3.139421277254521,-8.599339299192486,0.06552732078774956
3.15171993751879,-8.587498485102865,0.06603726102734295
3.176568251113945,-8.552806977156079,0.03059641437560291
3.213966218039986,-8.505651454378112,0.01988766934414189
3.2508621988327917,-8.494849308191089,0.00866898407308749
3.300056839889866,-8.484047162004066,-0.0028046713177635996
3.349000487880323,-8.473660482978083,-0.026006952219262473
3.410242796135048,-8.47511461804172,-0.0252420418598724
3.446887783861236,-8.48820183361446,-0.03697066737052018
3.4963334179849284,-8.453094858506635,-0.03569581677153672
3.52042875238023,-8.477607421007956,-0.023712221141092255
3.545026072908767,-8.477815154588477,-0.011218685271054398
3.5696233934373045,-8.453925792828713,0.013768386469021308
3.5816710606349553,-8.465766606918335,0.03799054784970694
3.60651937423011,-8.453925792828713,0.06272264946998596
3.618567041427761,-8.453925792828713,0.07496121522022713
3.6308657016920294,-8.441669511578052,0.09943834672070945
3.618316048361143,-8.476984220266397,0.12289559774200501
3.6429133688896806,-8.465558873337816,0.1234055379815984
3.6306147086254117,-8.464727939015736,0.14762769936228404
3.6062683811634924,-8.464312471854697,0.14711775912269065
3.581922053701573,-8.439592175772855,0.14737272924248734
3.5573247331730355,-8.451017522701438,0.14686278900289396
3.545026072908767,-8.450809789120918,0.14660781888309726
3.5327274126444985,-8.47511461804172,0.12187571726281825
3.5327274126444985,-8.463066070371578,0.12187571726281825
3.52042875238023,-8.474491417300161,0.13360434277346603
3.507879099049344,-8.486539964970301,0.12111080690342818
3.495831431851693,-8.486124497809262,0.12111080690342818
3.4832817785208063,-8.510221593149545,0.10836230091359363
3.47073212518992,-8.534110954909307,0.09561379492375909
3.446134804661383,-8.54574403541841,0.0951038546841657
3.4217884771994633,-8.53265681984567,0.11907104594505465
3.3969401636043086,-8.567763794953496,0.14227332684655353
3.38464150334004,-8.555092046541795,0.15451189259679468
3.372091850009154,-8.578150473979479,0.1902077093683314
3.347745522547234,-8.577527273237921,0.2019363348789792
3.323399195085315,-8.56444005766518,0.22615849625966483
3.2742045540282403,-8.587706218683385,0.20091645439979242
3.2375595663020524,-8.574411269530126,0.22488364566068136
3.2006635855092465,-8.573995802369085,0.20015154404040236
3.176317258047327,-8.573372601627527,0.21188016955105013
3.1642695908496763,-8.560700853215826,0.22386376518149462
3.1396722703211393,-8.548236838384646,0.22386376518149462
3.127624603123488,-8.547613637643087,0.23584736081193908
3.103027282594951,-8.55883125099115,0.24732101620279018
3.078429962066414,-8.55820805024959,0.259049641713438
3.066382294868763,-8.54553630183789,0.2712882074636791
3.0538326415378765,-8.569425663597652,0.2707782672240857
3.0538326415378765,-8.569217930017134,0.2827618628545302
3.0907286223306825,-8.54615950257945,0.2715431775834758
3.1153259428592195,-8.546574969740488,0.28403671345351367
3.164520583916294,-8.523724275883325,0.27307299830225595
3.2137152249733685,-8.512922129696301,0.27383790866164603
3.238061552435288,-8.524970677366442,0.29831504016212834
3.2501092196329386,-8.525178410946962,0.29831504016212834
3.3111005348210463,-8.550521907770362,0.3110635461519629
3.347745522547234,-8.563193656182063,0.32330211190220404
3.4087368377353418,-8.576280871754802,0.3360506178920386
3.469979145990067,-8.589368087327541,0.3487991238818731
3.5186718009139057,-8.614088383409383,0.3732762553823555
3.555316788640094,-8.614711584150943,0.3857697912523933
3.6042604366305504,-8.627798799723681,0.3862797314919867
3.6163081038282012,-8.640055080974342,0.3982633271224312
3.62860676409247,-8.627798799723681,0.4229954287427102
3.628104777959235,-8.663528975573065,0.4344690841335613
3.628104777959235,-8.663113508412026,0.4586912455142469
3.677048425949691,-8.663528975573065,0.4956619128847671
3.7257410808735303,-8.688664738815946,0.49591688300456377
3.762637061666336,-8.689080205976985,0.5203940145050461
3.7987800632592883,-8.737482130238071,0.544361205765935
3.8354250509854766,-8.737482130238071,0.5933154687668997
3.846970732049892,-8.797724868588777,0.5922955882877129
3.8956633869737307,-8.834285978760239,0.6287563154186397
3.919758721369033,-8.858383074100521,0.6527235066795287
3.931555395500066,-8.906577264781086,0.6641971620703798
3.967949390159636,-8.943761575694108,0.6519585963201386
3.9920447245549378,-8.980114952285051,0.6636872218307864
4.015889065883622,-9.028516876546135,0.6751608772216375
4.015638072817004,-9.039942223474718,0.6993830386023231
4.003088419486118,-9.075256932163063,0.722585319503822
3.989785786955378,-9.158973565112491,0.7330390944154863
3.9649374733602234,-9.194911474542396,0.7077970525556139
3.9521368269627195,-9.242482464481402,0.7190157378266683
3.914989853103296,-9.289430253678848,0.7297244828581293
3.890392532574759,-9.30064786702691,0.7411981382489804
3.8283972451201804,-9.359436470313979,0.7394133474104035
3.816349577922529,-9.346972455482797,0.751396943040848
3.767405929932073,-9.345310586838641,0.7751091641819403
3.718462281941616,-9.332431104846421,0.7623606581921057
3.6941159544796967,-9.331392436943823,0.7863278494529947
3.6697696270177773,-9.306879874442501,0.7863278494529947
3.6697696270177773,-9.306256673700942,0.8105500108336804
3.6454232995558575,-9.293792658869762,0.8105500108336804
3.6454232995558575,-9.293584925289242,0.8225336064641248
3.6328736462249713,-9.329522834719146,0.8097851004742903
3.620323992894085,-9.341363648808766,0.8092751602346969
3.583428012101279,-9.36442207624645,0.8085102498753068
3.5585796985061244,-9.387895970845173,0.8077453395159168
3.534233371044205,-9.387272770103616,0.8194739650265646
3.5096360505156676,-9.398698117032197,0.8189640247869712
3.497337390251399,-9.39807491629064,0.830692650297619
3.4845367438538952,-9.433597358559503,0.8421663056884701
3.4594374371921224,-9.48033741417643,0.8893357778508578
3.410242796135048,-9.514821188542696,0.91228308863256
3.3976931428041617,-9.53767188239986,0.9599625010345412
3.3602951758781208,-9.584411938016787,0.9829098118162434
3.335195869216348,-9.643616008464894,0.9936185568477044
3.2980488953569242,-9.6785152499922,1.0165658676294065
3.2481012750999967,-9.76202414936111,0.9900489751705508
3.2227509753716066,-9.833484501059878,0.9885191544517706
3.1733053412479144,-9.881678691740444,0.9265614153411748
3.111310053793336,-9.964772123948313,0.8997895527625221
3.0739120868672947,-10.02459939513798,0.8740375706630564
3.0119167994127163,-10.10810829450689,0.8232985168235148
2.961718186089171,-10.20366574154594,0.796781624364659
2.911519572765626,-10.323943484666833,0.733294064535283
2.8859182799706176,-10.432380413698102,0.6825550106957415
2.847767333844723,-10.564291237328096,0.6555281779972922
2.809867380785447,-10.660056417947667,0.6290112855384364
2.7599197605285193,-10.755821598567238,0.5902558273293395
2.7345694608001287,-10.851794512767327,0.5639939049902802
2.660275513081282,-10.910583116054395,0.5497155782816656
2.5982802256267035,-10.993468814681746,0.5354372515730509
2.5488345915030113,-11.01590404137787,0.5583845623547531
2.5237352848412384,-11.087987593818198,0.5326325802552873
2.4863373179151975,-11.147191664266305,0.5311027595365071
2.460987018186807,-11.218859749545594,0.5293179686979302
2.4722817061846047,-11.315663598067763,0.5035659865984645
2.470775747784898,-11.448405356019835,0.47704909413960866
2.4695207824518097,-11.568683099140728,0.462770767430994
2.492361151514023,-11.71388887192398,0.43625387497213813
2.515452513642854,-11.834997549366951,0.4222305183833201
2.5385438757716843,-11.967531573738505,0.43217435305539104
2.5741848912314014,-12.064543155841193,0.4308995024564076
2.609825906691119,-12.161139270782842,0.44186321760766534
2.658016575481722,-12.234469224706288,0.44109830724827526
2.66931126347952,-12.331065339647937,0.4275848908990506
2.681107937610553,-12.379674997489541,0.4148363849092161
2.7052032720058548,-12.404603027151902,0.4025978191589749
2.6929046117415862,-12.416236107661003,0.4020878789193815
2.693155604808204,-12.404187559990863,0.4023428490391782
2.681358930677171,-12.355577902149259,0.4150913550290128
2.6577655824151045,-12.270199400555672,0.45257196263912636
2.6221245669553874,-12.16155473794388,0.44211818772746203
2.5869855376289057,-12.015725764419068,0.4803637056969656
2.563894175500075,-11.882984006466996,0.48265843677513587
2.529006139240211,-11.725729686013603,0.49693676348375054
2.5064167632446153,-11.544378270219925,0.5242185663019965
2.459481059787101,-11.363026854426248,0.5267682674999634
2.4127963493962037,-11.15737060971177,0.5418115045679681
2.3661116390053065,-10.93966581732715,0.5573646818755663
2.3201799078142624,-10.661095085850265,0.6101434966734813
2.2614475302257144,-10.418877730964324,0.6376802696115239
2.2275634662323216,-10.16502729556928,0.6782205186591977
2.1816317350412775,-9.875031217163814,0.7070321421962239
2.123150350519347,-9.633021595858391,0.722585319503822
2.0521193126665307,-9.40326825580363,0.7136613653109378
1.9933869350779827,-9.185355729838491,0.7167210067484981
1.9223558972251662,-8.943969309274628,0.6958134569251695
1.8633725265700005,-8.73789759739911,0.7108566939931742
1.7925924817838017,-8.507521056602789,0.7381384968114202
1.720808464731132,-8.338010454898734,0.7159560963891081
1.6369767804808113,-8.179925200123261,0.7057572915972404
1.5526431100972553,-8.04614477426859,0.6947935764459827
1.4801061138447325,-7.972607086764625,0.6830649509353349
1.4075691175922094,-7.88660538442948,0.6835748911749283
1.3586254696017528,-7.874349103178819,0.6468591939242048
1.3340281490732155,-7.88598218368792,0.6341106879343702
1.2971321682804098,-7.909663811867164,0.6088686460744979
1.2597342013543686,-7.95681933464513,0.6075937954755144
1.2592322152211333,-8.017269806576355,0.5943353492460864
1.2825745704165816,-8.114073655098524,0.5808219328968619
1.2810686120168753,-8.246399945889557,0.5785272018186917
1.2918613138814377,-8.378518503100072,0.5882160663709659
1.3270003432079194,-8.523932009463843,0.5741927097821479
1.3375420520058638,-8.680355395595159,0.5713880384643842
1.384979741596614,-8.837817449629073,0.5693482775060108
1.3955214503945585,-8.981984554509728,0.5787821719384884
1.4058121661258853,-9.150041021150146,0.6001996620014104
1.4535008487832535,-9.283613713424296,0.586431275532389
1.4517438973169292,-9.439829365975093,0.5836266042146254
1.47483525944576,-9.560938043418064,0.5696032476258075
1.461281633848403,-9.681423520119475,0.5308477894167104
1.4723253287795828,-9.789860449150746,0.5290629985781337
1.4472260221178102,-9.861944001591073,0.5033110164786678
1.4462220498513394,-9.9466993024431,0.46532046862896087
1.4452180775848684,-10.04287995022371,0.4637906479101807
1.4570147517159016,-10.080064261136734,0.4268199805396606
1.4439631122517798,-10.15194007999654,0.41330656419043593
1.443712119185162,-10.176660376078383,0.37659086693971244
1.4311624658542756,-10.212806019088806,0.36358739083008124
1.4306604797210403,-10.26100020976937,0.35058391472045
1.442708146918691,-10.285305038690172,0.3503289446006533
1.4178598333235362,-10.308778933288895,0.3495640342412632
1.4055611730592676,-10.320204280217478,0.3735312255021522
1.4181108263901538,-10.284058637207055,0.3862797314919867
1.4183618194567718,-10.260377009027811,0.3748060761011356
1.4188638055900071,-10.211975084766728,0.38755458209097016
1.4073181245255917,-10.152147813577061,0.36435230118947126
1.396023436527794,-10.067184779144513,0.3898493131691404
1.3844777554633787,-9.994893493123666,0.3911241637681238
1.3734340605321986,-9.886248830511876,0.40489255023714515
1.3623903656010188,-9.789444981989707,0.41866093670616644
1.351095677603221,-9.692848867048058,0.43242932317518773
1.3889956306624978,-9.585035138758347,0.4589462156340436
1.3897486098623508,-9.524792400407641,0.47220466186347154
1.4158518887905944,-9.368161280695805,0.5237086260624031
1.429154521321334,-9.271772899334676,0.5499705484014623
1.4919027879757656,-9.12822899519558,0.5897458870897461
1.5541490684969617,-9.03287928173705,0.628501345298843
1.6163953490181577,-8.937737301859038,0.6432896122470512
1.6542953020774345,-8.829508106408287,0.6942836362063893
1.6921952551367112,-8.733950659369237,0.708561962915004
1.7175455548651015,-8.649610825678248,0.7587910765149521
1.7303462012626056,-8.576488605335323,0.820748815625548
1.7679951612552645,-8.492356505224853,0.8712328993452928
1.7928434748504194,-8.456418595794949,0.8964749412051651
1.8550897553716155,-8.37332516358708,0.9110082380335766
1.9168340497595762,-8.326377374389633,0.9247766245025979
1.953730030552382,-8.303526680532467,0.9135579392315435
2.0277729852046114,-8.256786624915541,0.9275812958203614
2.052621298799766,-8.233520463897337,0.9161076404295104
2.101564946790223,-8.222095116968756,0.9533332779198272
2.1384609275830284,-8.210669770040173,0.9663367540294585
2.1264132603853776,-8.197790288047953,0.9905589154101441
2.1384609275830284,-8.209631102137575,1.0147810767908299
2.125911274252142,-8.24515354440644,1.0259997620618841
2.10081196759037,-8.280468253094785,1.036963477213142
2.051868319599913,-8.290854932120768,1.0604207282344373
2.0267690129381406,-8.326169640809113,1.0716394135054919
1.9773233788144482,-8.384750510515662,1.0940767840476007
1.9524750652192935,-8.407601204372826,1.1295176306993406
1.8907307708313328,-8.453302592087155,1.1761771626221351
1.8656314641695602,-8.48840956719498,1.199379443523634
1.8533328039052914,-8.511467994632664,1.2350752602951707
1.8525798247054384,-8.571502999402849,1.234055379815984
1.8887228262983908,-8.620112657244453,1.2457840053266318
1.875922179900887,-8.66789138076398,1.244764124847445
1.8387752060414633,-8.702582888710765,1.2799500013793883
1.8016282321820398,-8.737482130238071,1.290913716530646
1.7770309116535026,-8.760748291256274,1.3021324018017004
1.7152866172655419,-8.794816598461502,1.337063308213847
1.6655899900752322,-8.85339746816805,1.3475170831255114
1.6286940092824265,-8.876040428444695,1.3827029596574547
1.603343709554036,-8.934829031731763,1.4176338660696013
1.615391376751687,-8.958510659911004,1.4538396230807316
1.5536470823637263,-8.992578967116232,1.476531963742637
1.5287987687685713,-9.027270475063018,1.5239564060248214
1.4424571538520734,-9.073387329938386,1.5219166450664479
1.40531017999265,-9.120750586296872,1.5084032287172233
1.3561155389355755,-9.143601280154035,1.519366943868481
1.318968565076152,-9.178085054520302,1.5545528204004244
1.3064189117452658,-9.189302667868365,1.5785200116613134
1.256722284554956,-9.259516618084016,1.624924573464311
1.183181316035962,-9.268656895626881,1.6840776412571434
1.109138361383733,-9.314566016921729,1.7065150117992522
1.0230477395338526,-9.348842057707476,1.692491655210434
0.9492557779482411,-9.370861817242561,1.7154389659921363
0.8875114835602804,-9.405968792350386,1.6896869838926705
0.8629141630317433,-9.417809606440008,1.6649548822723916
0.8019228478436358,-9.404722390867269,1.652206376282557
0.7657798462506832,-9.356320466606183,1.628239185021668
0.7045375379959579,-9.355281798703585,1.6032521132815922
0.6560958761387368,-9.318097487790563,1.6032521132815922
0.6191998953459309,-9.317474287049004,1.5907585774115545
0.5948535678840114,-9.317266553468485,1.5782650415415167
0.5951045609506292,-9.293377191708721,1.5665364160308688
0.6197018814791664,-9.28195184478014,1.5670463562704622
0.6076542142815156,-9.26948782994896,1.5792849220207035
0.5953555540172469,-9.25681608153726,1.5915234877709445
0.5956065470838646,-9.232303519035938,1.616000619271427
0.5958575401504824,-9.219631770624238,1.6527163165221503
0.6084071934813687,-9.183278394033294,1.6896869838926705
0.6696495017360939,-9.171853047104712,1.7271675915027842
0.7188441427931683,-9.159596765854051,1.800598986004231
0.7798354579812758,-9.15938903227353,1.8862689462559192
0.8041817854431953,-9.171229846363152,1.922729673386846
0.8410777662360011,-9.159181298693012,1.9716839363878107
0.8408267731693834,-9.182862926872254,1.9834125618984584
0.8290300990383502,-9.145886349539753,2.0203832292689787
0.8039307923765775,-9.192834138737199,2.055314135681125
0.7549871443861209,-9.178292788100821,2.1274706795835887
0.7303898238575837,-9.188471733546287,2.187643627855608
0.7180911635933152,-9.175176784393027,2.2480715462474237
0.7672858046503895,-9.162712769561846,2.3217579108686675
0.8162294526408461,-9.163335970303406,2.3587285782391874
0.9143677416883771,-9.129267663098178,2.3727519348280053
1.0127570238025259,-9.095822556634511,2.350569534405693
1.1723886141714,-9.063416118073441,2.353374205723457
1.3194705512093874,-9.055522242013694,2.3072246140402557
1.515245143171214,-9.072764129196827,2.273313588107296
1.6623270802092016,-9.065285720298117,2.214925430673854
1.8219586705780757,-9.04575876372927,2.1690308091104495
1.9321446268232576,-9.049082501017583,2.1221163070678584
1.9938889212112183,-9.002965646142215,2.0996789365257493
2.0679318758634473,-8.957056524847367,2.0772415659836407
2.0807325222609516,-8.91010873564992,2.030072093821253
2.069186841196536,-8.850904665201814,1.9704090857888272
2.0942861478583086,-8.792116061914745,1.9354781793766807
2.1186324753202284,-8.805411011068005,1.8992724223655504
2.1429788027821477,-8.830546774310886,1.8628116952346236
2.1429788027821477,-8.831585442213484,1.8143673724732523
2.155528456113034,-8.82057556244594,1.778416585581919
2.1429788027821477,-8.844672657786223,1.75368448396164
2.118883468386846,-8.82078329602646,1.7174787269505098
2.0822384806606578,-8.808111547614761,1.704985191080472
1.984100191613127,-8.830546774310886,1.6789782388612096
1.9103082300275154,-8.84051798617583,1.6899419540124672
1.8121699409799843,-8.862122278549876,1.7003957289241316
1.7132786727326001,-8.931297560862928,1.7340517847372947
1.6271880508827201,-8.977622149318815,1.71977345802868
1.5902920700899141,-8.988632029086357,1.731247113419531
1.5531450962304907,-9.036410752605883,1.7057501014398622
1.5408464359662222,-9.035995285444844,1.7054951313200655
1.5157471293044495,-9.08356627538385,1.704220280721082
1.490647822642677,-9.131344998903375,1.690961834491654
1.5029464829069454,-9.144432214476115,1.6545011073607272
1.4783491623784082,-9.156065294985217,1.6420075714906894
1.4660505021141397,-9.168321576235877,1.6172754698704104
1.4414531815856024,-9.168321576235877,1.580559772619687
1.4048081938594144,-9.155649827824178,1.5683212068694456
1.4048081938594144,-9.156480762146256,1.531860479738519
1.3925095335951458,-9.168113842655357,1.5316055096187222
1.4294055143879516,-9.157311696468334,1.520131854227871
1.4660505021141397,-9.157727163629374,1.5328803602177057
1.5029464829069454,-9.14671728386183,1.533390300457299
1.5270418173022473,-9.183278394033294,1.5331353303375024
1.551890130897402,-9.16001223301509,1.5219166450664479
1.563937798095053,-9.184109328355373,1.5336452705770958
1.575985465292704,-9.184524795516412,1.5216616749466512
1.6003317927546232,-9.196781076767072,1.5461388064471335
1.6246781202165428,-9.209660558759293,1.5219166450664479
1.6490244476784621,-9.222332307170992,1.5221716151862446
1.6856694354046502,-9.235211789163213,1.5224265853060412
1.697968095668919,-9.247675803994394,1.5101880195558002
1.722565416197456,-9.236458190646331,1.498714364164949
1.734362090328489,-9.273019300817793,1.4859658581751145
1.7587084177904087,-9.297947330480154,1.4739822625446701
1.758457424723791,-9.322044425820437,1.4612337565548355
1.770254098854824,-9.35922873673346,1.424518059304112
1.7695011196549708,-9.431520022754306,1.4110046429548875
1.793094467917037,-9.504642243097232,1.3860175712148117
1.816938809245721,-9.577556729859637,1.3727591249853837
1.8279825041769011,-9.674983779123366,1.3227849815052324
1.8395281852413166,-9.759946813555914,1.2850494037753222
1.8385242129748456,-9.844286647246902,1.2715359874260974
1.8370182545751392,-9.977028405198974,1.2450190949672417
1.8357632892420506,-10.109770163151046,1.2182472323885891
1.8588546513708815,-10.230671107013498,1.2042238757997712
1.8578506791044105,-10.314803207123965,1.202694055080991
1.881193034299859,-10.424071070477316,1.1769420729815252
1.880189062033388,-10.520043984677406,1.1751572821429483
1.8914837500311859,-10.604591551948914,1.1738824315439649
1.878432110567064,-10.688931385639902,1.1478754793247024
1.852830817772056,-10.772648018589331,1.1341070928556811
1.8525798247054384,-10.809209128760793,1.1091200211156054
1.8272295249770478,-10.892925761710224,1.0950966645267874
1.8021302183152752,-10.952960766480409,1.0695996525471183
1.8013772391154221,-11.025875253242816,1.031864074817208
1.8001222737823335,-11.122263634603945,1.0180956883481866
1.76297529992291,-11.16983462454295,0.9923437062487209
1.7865686481849763,-11.255420859717058,0.9428795030081629
1.760967355389968,-11.351393773917147,0.9286011762995482
1.7604653692567327,-11.411636512267853,0.9153427300701203
1.7476647228592286,-11.459622969367897,0.9023392539604891
1.7471627367259932,-11.508232627209502,0.8770972121006166
1.734362090328489,-11.556219084309546,0.8640937359909855
1.734362090328489,-11.556219084309546,0.8640937359909855
1.7095137767333342,-11.59215699373945,0.838851694131113
1.6849164562047971,-11.591533792997891,0.8385967240113164
1.6851674492714148,-11.57927751174723,0.8508352897615575
1.648271468478609,-11.602959139926474,0.8255932479016851
1.6359728082143405,-11.590910592256332,0.8136096522712406
1.611626480752421,-11.578862044586192,0.789387490890555
1.5754834791594683,-11.54209320083421,0.7774038952601106
1.551137151697549,-11.518203839074447,0.7411981382489804
1.551890130897402,-11.45837656788478,0.7302344230977227
1.5526431100972553,-11.398549296695114,0.7190157378266683
1.5408464359662222,-11.350770573175588,0.6955584868053728
1.5421014012993108,-11.243164578466397,0.6613924907526162
1.5305557202348954,-11.18333730727673,0.6379352397313206
1.5315596925013664,-11.08777986023768,0.6035142735587673
1.5077153511726822,-11.028160322628532,0.5558348611567862
1.5212689767700396,-10.92055432791934,0.533652460734474
1.4971736423747377,-10.872775604399814,0.4979566439629373
1.4984286077078264,-10.777425890941284,0.4512971120401429
1.5114802471719482,-10.693916991572374,0.44084333712847856
1.4876359058432642,-10.633674253221669,0.417386086107183
1.4765922109120841,-10.53707813828002,0.4311544725762043
1.489643850376206,-10.453361505330589,0.42070069766454
1.527292810368865,-10.3700603395422,0.4227404586229135
1.5157471293044495,-10.310025334772014,0.4115217733518591
1.5413484220994575,-10.226308701822585,0.41330656419043593
1.5541490684969617,-10.166273697052398,0.4265650104198639
1.5669497148944658,-10.106654159443252,0.41585626538840287
1.5800013543585874,-10.046411421092545,0.44135327736807195
1.580503340491823,-9.98616868274184,0.45461172359749985
1.6058536402202133,-9.914292863882032,0.4681251399467245
1.618905279684335,-9.842417045022223,0.4696549606655046
1.6317059260818392,-9.794846055083218,0.4586912455142469
1.6447575655459608,-9.722347035481851,0.49642682324415716
1.6573072188768472,-9.674360578381807,0.5096852694735851
1.6826575186052375,-9.602692493102518,0.5234536559426064
1.6954581650027416,-9.554913769582994,0.5244735364217932
1.7205574716645142,-9.507135046063468,0.5377319826512211
1.7454057852596692,-9.471820337375123,0.5265132973801667
1.7828037521857103,-9.400359985676355,0.5405366539689846
1.807903058847483,-9.35299672931787,0.5295729388177269
1.8453010257735243,-9.292961724547682,0.567563486667434
1.8698983463020613,-9.2815363776191,0.5680734269070273
1.9067943270948673,-9.270318764271037,0.5688383372664174
1.943690307887673,-9.246637136091795,0.593825409006493
1.9431883217544375,-9.2952467939334,0.5688383372664174
1.9793313233473901,-9.344271918936043,0.5685833671466207
1.9788293372141545,-9.392466109616608,0.5555798910369895
2.0026736785428385,-9.453124315128353,0.5548149806775994
2.0139683665406363,-9.53787961598038,0.5413015643283747
2.013466380407401,-9.598330087911606,0.5160595224685024
2.0247610684051986,-9.682877655183113,0.5025461061192777
2.0117094289410766,-9.76784068961566,0.45231699251932966
2.0109564497412236,-9.839924242055988,0.4510421419203462
1.9851041638795979,-9.948361171087258,0.4003030880808047
1.9718015313488584,-10.05700583369905,0.3618025999915044
1.9705465660157697,-10.1779067775615,0.32330211190220404
1.9451962662873794,-10.249782596421309,0.29755012980273826
1.894997652963834,-10.35718085754998,0.2827618628545302
1.8696473532354436,-10.441936158402008,0.22029418350434093
1.8322493863094025,-10.514019710842335,0.17006506990439282
1.7459077713929045,-10.573223781290443,0.11958098618464803
1.6964621372692126,-10.620587037648928,0.09382900408518224
1.6226701756836008,-10.643853198667133,0.04385486060503083
1.549380200231225,-10.630558249513873,0.018867788864955125
1.4635405714479623,-10.653408943371037,-0.01912275898475182
1.3902505959955864,-10.640113994217778,-0.04410983072482753
1.3413069480051296,-10.627442245806078,-0.06858696222530986
1.292363300014673,-10.63886759273466,-0.09382900408518224
1.2434196520242164,-10.62619584432296,-0.11856110570546126
1.2554673192218673,-10.63865985915414,-0.13054470133590573
1.2065236712314107,-10.637828924832062,-0.14329320732574027
1.1939740179005243,-10.661926020172343,-0.15604171331557481
1.14477937684345,-10.685607648351587,-0.20550591655613287
1.1083853821838796,-10.661095085850265,-0.21774448230637403
1.0596927272600407,-10.636167056187904,-0.22998304805661518
0.9984504190053155,-10.635128388285306,-0.25522508991648757
0.9623074174123629,-10.598775011694363,-0.27919228117737654
0.9010651091576376,-10.597528610211244,-0.29219575728700775
0.8890174419599868,-10.573846982032002,-0.3161629485478967
0.8162294526408461,-10.512565575778698,-0.35236870555902683
0.7923851113121622,-10.463540450776055,-0.3276366039387478
0.7685407699834781,-10.403920913166907,-0.375316016340729
0.7569950889190628,-10.343885908396722,-0.39851829724222787
0.7579990611855336,-10.247497527035591,-0.3847499107732066
0.7587520403853868,-10.175413974595264,-0.3834750601742231
0.7838513470471594,-10.115171236244558,-0.34573948244431285
0.7720546729161263,-10.078402392492576,-0.32100738082403385
0.7848553193136303,-10.030415935392531,-0.3077489345946059
0.7971539795778989,-10.018367387722389,-0.2952553987245681
0.7974049726445167,-9.994685759543147,-0.3069840242352158
0.7976559657111344,-9.970380930622344,-0.294490488365178
0.8225042793062893,-9.935066221934,-0.3054542035164357
0.8596512531657128,-9.899751513245654,-0.30443432303724893
0.9093478803560227,-9.841378377119625,-0.32687169357935775
0.9467458472820638,-9.770125759001377,-0.3250869027407809
0.9964424744723737,-9.711544889294828,-0.3475242732828897
1.0712384083244562,-9.592929014818093,-0.3442096617255327
1.1334846888456522,-9.510666516932302,-0.3661370920280481
1.1467873213763917,-9.414901336312733,-0.36435230118947126
1.2092845949642057,-9.295662261094439,-0.3370704983712254
1.2715308754854018,-9.213192029628127,-0.3467593629234996
1.3460758162708666,-9.106832436402053,-0.3559382872361805
1.3834737831969077,-9.047836099534466,-0.3663920621478448
1.4826160445109096,-8.941476506308392,-0.3388552892098022
1.5689576594274075,-8.895775118594063,-0.3610376896321143
1.667597934608174,-8.825561168378412,-0.34624942268390624
1.7541905425912896,-8.742675469751061,-0.3072389943550125
1.8282334972435188,-8.696558614875695,-0.31743779914688014
1.914324119093399,-8.650026292839287,-0.29143084692761767
1.9881160806790106,-8.626760131821083,-0.24145670344746628
2.0983020369241925,-8.62821426688472,-0.19148255996731486
2.746366134931162,-8.685548735108151,0.10708745031461017
2.8073574501192695,-8.710476764770512,0.1315645818150925
2.8808984186382633,-8.69967461858349,0.1570615937947616
2.9054957391668004,-8.69967461858349,0.19377729104548508
2.9421407268929882,-8.699882352164009,0.2182544225459674
2.979036707685794,-8.676408457565286,0.2434964644058398
3.015681695411982,-8.688664738815946,0.26797359590632214
3.0159326884786,-8.663736709153586,0.31692785890728675
3.040530009007137,-8.651895895063964,0.3416599605275658
3.065378322602292,-8.627383332562642,0.3908691936483271
3.0899756431308294,-8.615127051311982,0.4398234566492918
3.0779279759331786,-8.57794274039896,0.4765391539000153
3.0779279759331786,-8.577527273237921,0.5007613152807009
3.041533981273608,-8.540758429485937,0.5010162854004976
3.0174386468783063,-8.503574118572915,0.52549341690098
2.981295645285354,-8.455172194311832,0.5017811957598877
2.93310497649475,-8.393683054478007,0.5142747316299255
2.872113661306643,-8.357121944306545,0.46557543874875756
2.8118753253183884,-8.283584256802579,0.46608537898835095
2.7631826703945497,-8.247023146631117,0.44186321760766534
2.6778450277445227,-8.209423368557056,0.4171311159873863
2.6171047056230328,-8.159567309232333,0.44135327736807195
2.568663043765812,-8.122382998319312,0.44135327736807195
2.519719395775355,-8.108880315585532,0.45308190287871974
2.5199703888419727,-8.085406420986809,0.42936968173762746
2.4956240613800533,-8.08478322024525,0.4288597414980341
2.483074408049167,-8.108880315585532,0.41611123550819956
2.458226094454012,-8.132561943764776,0.403362729518365
2.4584770875206297,-8.118851527450477,0.48826777941066307
2.4090314533969375,-8.140871286985563,0.5356922216928476
2.3598368123398634,-8.16226784577909,0.6193224209861622
2.286044850754252,-8.183456670992095,0.6784754887789944
2.224300556366291,-8.228742591545386,0.7493571820824745
2.186651596373632,-8.299372008922075,0.7837781482550278
2.210746930768934,-8.335309918351978,0.8197289351463612
2.2955825872857254,-8.408847605855943,0.8439510965270468
2.3809202299357524,-8.446655117510526,0.8564446323970847
2.52800216697374,-8.425674025878038,0.8709779292254961
2.613339809623767,-8.46348153753262,0.8837264352153307
2.711478098671298,-8.465558873337816,0.8969848814447585
2.784768074123674,-8.467220741981972,0.8980047619239453
2.833711722114131,-8.480723424715752,0.8742925407828531
2.8452574031785463,-8.541589363808017,0.8490504989229807
2.8452574031785463,-8.542004830969056,0.8250833076620917
2.820660082650009,-8.553637911478157,0.8123348016722571
2.7714654415929343,-8.576904072496362,0.7990763554428293
2.7594177743952835,-8.564232324084662,0.8113149211930705
2.710725119471445,-8.527463480332678,0.7990763554428293
2.6863787920095255,-8.52684027959112,0.7988213853230326
2.6374351440190686,-8.525801611688522,0.7980564749636425
2.6251364837548,-8.524970677366442,0.8222786363443282
2.5879895098953765,-8.548236838384646,0.8212587558651414
2.5513445221691886,-8.547405904062567,0.820748815625548
2.53904586190492,-8.558623517410629,0.8444610367666402
2.5139465552431473,-8.594145959679494,0.8436961264072501
2.525994222440798,-8.629876135528878,0.8793919431787869
2.5375399035052135,-8.689287939557506,0.9268163854609714
2.585730572295817,-8.75015387864977,0.9385450109716191
2.584726600029346,-8.83345504443816,0.9854595130142103
2.596523274160379,-8.868769753126506,1.0333938955359883
2.632415282686714,-8.941061039147352,1.0688347421877282
2.644211956817747,-8.976998948577256,1.0925469633288205
2.668056298146431,-9.036410752605883,1.1524649414810428
2.6796019792108465,-9.096653490956589,1.1636836267520971
2.703697313606148,-9.132591400386493,1.1996344136434307
2.7026933413396774,-9.216515766916443,1.210088188555095
2.7393383290658657,-9.228979781747622,1.222581724425133
2.7631826703945497,-9.301478801348988,1.2338004096961872
2.774979344525583,-9.337832177939932,1.2332904694565938
2.7496290447971923,-9.40970799679974,1.2195220829875726
2.8108713530519176,-9.423210679533518,1.2080484275967214
2.8472653477114878,-9.4483464427764,1.196064831966277
2.8711096890401717,-9.508796914707625,1.2072835172373313
2.882906363171205,-9.545981225620647,1.1583292542363668
2.8949540303688557,-9.57028605454145,1.15807428411657
2.918547378630922,-9.643408274884376,1.1328322422566977
2.918547378630922,-9.655456822554516,1.132577272136901
2.930344052761955,-9.69181019914546,1.1323223020171043
2.917794399431069,-9.728371309316922,1.0950966645267874
2.917543406364451,-9.740004389826025,1.1070802601572318
2.892946085835914,-9.763478284424748,1.1063153497978417
2.892193106636061,-9.811257007944272,1.1295176306993406
2.8670937999742883,-9.87087654555342,1.116004214350116
2.8547951397100197,-9.882509626062522,1.1277328398607638
2.829695833048247,-9.941713696510629,1.138441584892225
2.804345533319857,-10.013174048209397,1.1488953598038891
2.7915448869223525,-10.060952771728923,1.1478754793247024
2.753895926929694,-10.131166721944574,1.1945350112474968
2.71674895307027,-10.17852997830306,1.1930051905287167
2.6670523258799603,-10.237318581590127,1.2034589654403811
2.654753665615692,-10.236695380848568,1.2154425610708255
2.6053080314919996,-10.295691717716156,1.2136577702322486
2.568161057632576,-10.318334677992802,1.2490986168839886
2.5312650768397704,-10.341185371849965,1.2600623320352464
2.4941181029803468,-10.37650008053831,1.2590424515560596
2.4695207824518097,-10.387717693886373,1.2705161069469106
2.4203261413947352,-10.386263558822735,1.2819897623377619
2.3836811536685474,-10.385640358081176,1.2694962264677239
2.3101401851495535,-10.3837707558565,1.2804599416189817
2.2614475302257144,-10.37089127386428,1.2679664057489437
2.1999542289043714,-10.394157434882482,1.2304857981388302
2.1507595878472974,-10.418046796642244,1.1807666247784756
2.1131106278546383,-10.502386630333234,1.1302825410587307
2.0880113211928655,-10.56262936868394,1.0925469633288205
2.049860375066971,-10.694540192313934,1.0535365349999268
2.0117094289410766,-10.814610201854306,1.0145261066710332
1.9733074897485647,-10.982666668494723,0.9744957978629526
1.9472042108203211,-11.113954291383157,0.9959132879258746
1.8967546044301582,-11.257290461941734,0.9806150807380731
1.846304998039995,-11.40083436608083,0.9530783078000306
1.8084050449807185,-11.496184079539361,0.9507835767218603
1.7459077713929045,-11.615215421177135,0.9357403396538556
1.6962111442025947,-11.686260305714864,0.9337005786954821
1.646514517012285,-11.745048909001932,0.9441543536071464
1.6091165500862437,-11.80446071303056,0.930385967138125
1.5717185831602025,-11.851823969389045,0.9168725507889004
1.5343206162341612,-11.923284321087813,0.9150877599503237
1.5092213095723885,-11.971270778187858,0.8898457180904512
1.4838710098439982,-12.06682822522691,0.8878059571320777
1.495165697841796,-12.139327244828277,0.8745475109026498
1.4698153981134057,-12.210579862946524,0.8969848814447585
1.5062093927729758,-12.246725505956949,0.9331906384558887
1.5182570599706269,-12.270822601297231,0.9449192639665365
1.5674517010277011,-12.234053757545247,1.0430827600882624
1.5800013543585874,-12.209125727882887,1.1042755888394682
1.6048496679537423,-12.159892869299723,1.190200519210953
1.6301999676821328,-12.086978382537318,1.264651794191587
1.6304509607487505,-12.049794071624296,1.3258446229427927
1.6555502674105231,-11.98934359969307,1.3755637963031473
1.6317059260818392,-11.928269927020287,1.400550868043223
1.63270989834831,-11.831466078498117,1.43854141589293
1.6219171964837478,-11.710565134635665,1.4648033382319892
1.6239251410166895,-11.530044653164067,1.4801015454197906
1.6505304060781685,-11.313378528682046,1.520896764587261
1.6284430162158086,-11.095673736297426,1.5729106690257861
1.6312039399486036,-10.842654235224462,1.6137058881932567
1.6091165500862437,-10.6129008951697,1.6537361970013371
1.5872801532905014,-10.383355288695459,1.6940214759292143
1.552894103163873,-10.1652350291498,1.7457804102479426
1.5433563666323995,-9.911800060915796,1.7865756294154131
1.4966716562415023,-9.694926202853255,1.7656680795920845
1.4135929511910348,-9.453332048708871,1.7325219640185145
1.3915055613286749,-9.23604272348529,1.7480751413261129
1.3445698578711602,-9.054483574111096,1.7628634082743209
1.2853354941493766,-8.87250895757586,1.7773967051027322
1.286841452549083,-8.728549586275724,1.7679628106702547
1.300646071213058,-8.597677430548329,1.7220681891068503
1.3139487037437976,-8.502327717089798,1.687647222934297
1.3026540157459998,-8.419026551301409,1.640732720891706
1.2785586813506982,-8.382880908290984,1.616765529630817
1.2180693522958261,-8.3344789840299,1.5563376112390013
1.1811733715030204,-8.33427125044938,1.519366943868481
1.1196800701816774,-8.382049973968906,1.4571542346380884
1.0699834429913675,-8.442292712319611,1.3949415254076958
1.0197848296678222,-8.562362721859984,1.343692531328561
0.9941835368728141,-8.659166570382153,1.2689862862281305
0.9565345768801552,-8.755554951743282,1.2182472323885891
0.9181326376876431,-8.900137523784977,1.1545047024394164
0.8927823379592527,-8.995902704404546,1.1404813458505985
0.8912763795595463,-9.129059929517659,1.0894873218912602
0.8779737470288068,-9.23749685854893,1.0512418039217566
0.8762167955624828,-9.394335711841284,1.0242149712233073
0.8993081576913136,-9.527492936954395,0.9976980787644515
0.8975512062249895,-9.683708589505192,0.9948934074466879
0.8962962408919009,-9.804401799787124,0.9686314851076288
0.8947902824921945,-9.936935824158677,0.9540981882792173
0.8812366568948372,-10.045372753189946,0.915597700189917
0.892531344892635,-10.142592068873155,0.87760715234021
0.8543803987667405,-10.274918359664188,0.8263581582610752
0.8536274195668874,-10.347625112846075,0.7888775506509617
0.8403247870361479,-10.456477509038384,0.7381384968114202
0.8398228009029124,-10.505294900460509,0.7009128593211033
0.8518704681005633,-10.517758915291688,0.6889292636906588
0.8639181352982142,-10.542271477793012,0.6764357278206209
0.8516194750339455,-10.542271477793012,0.6641971620703798
0.8518704681005633,-10.53001519654235,0.6764357278206209
0.8641691283648318,-10.51817438245273,0.6769456680602143
0.864922107564685,-10.457931644102022,0.6902041142896422
0.8774717608955713,-10.422616935413679,0.6667468632683466
0.8661770728977737,-10.33827710172269,0.6680217138673301
0.8789777192952777,-10.278657564113542,0.6573129688358691
0.8922803518260172,-10.182476916332933,0.6713363254246871
0.9181326376876431,-10.0628223739536,0.6738860266226541
0.9437339304826511,-9.955424112824927,0.6639421919505831
0.9698372094108947,-9.811464741524793,0.691223994768829
1.0197848296678222,-9.727748108575364,0.7297244828581293
1.0453861224628302,-9.620142113866171,0.7320192139362995
1.1201820563149127,-9.513574787059579,0.7348238852540632
1.1457833491099207,-9.394127978260764,0.7253899908215856
1.2205792829620032,-9.287352917873651,0.7404332278895903
1.2582282429546623,-9.204259485665782,0.7302344230977227
1.296128196013939,-9.097068958117628,0.7327841242956896
1.3460758162708666,-9.001926978239617,0.7350788553738599
1.3962744295944118,-8.894528717110944,0.762105688072309
1.4339233895870707,-8.823483832573215,0.7516519131606447
1.496169670108267,-8.716085571444545,0.778678745859094
1.5458662972985766,-8.657504701737995,0.7684799410672264
1.619909251950806,-8.598923832031447,0.7705197020255998
1.6698568722077336,-8.527671213913198,0.7845430586144179
1.7193025063314256,-8.48093115829627,0.7740892837027535
1.756449480190849,-8.433983369098824,0.7633805386712925
1.8058951143145412,-8.39908412757152,0.764655389270276
1.842791095107347,-8.387658780642937,0.7774038952601106
1.8922367292310391,-8.352967272696151,0.7666951502286495
1.9168340497595762,-8.329493378097428,0.7674600605880396
1.9662796838832683,-8.306642684240263,0.7684799410672264
1.9906260113451877,-8.306850417820783,0.7809734769372642
2.0395696593356445,-8.307681352142861,0.7937219829270987
2.0395696593356445,-8.307889085723382,0.7814834171768575
2.0516173265332953,-8.331778447483144,0.8054506084377465
2.063664993730946,-8.356083276403947,0.8051956383179498
2.075712660928597,-8.355875542823426,0.8296727698184322
2.075712660928597,-8.355460075662387,0.8538949311991177
2.075712660928597,-8.36730088975201,0.8656235567097655
2.075712660928597,-8.354421407759789,0.9143228495909336
2.0634140006643285,-8.365639021107851,0.9382900408518224
2.05111534040006,-8.364392619624732,0.9864793934933971
2.0265180198715225,-8.375817966553315,0.9859694532538037
1.9893710460120992,-8.39846092682996,1.0214102999055437
1.9527260582859112,-8.38537371125722,1.0331389254161916
1.9158300774931054,-8.408016671533865,1.0563412063176905
1.8543367761717624,-8.43045189822999,1.067304921468948
1.8053931281813058,-8.40448520066503,1.1154942741105227
1.7687481404551177,-8.415079613271534,1.1389515251318183
1.7689991335217354,-8.391190251511771,1.1394614653714117
1.7689991335217354,-8.390774784350732,1.151445061001856
1.7933454609836548,-8.403654266342953,1.1394614653714117
1.8056441212479235,-8.39181345225333,1.1519550012414494
1.7689991335217354,-8.390774784350732,1.151445061001856
1.7446528060598159,-8.378310769519551,1.151445061001856
1.6954581650027416,-8.377272101616953,1.150680150642466
1.6834104978050908,-8.365223553946812,1.1386965550120216
1.646514517012285,-8.388074247803976,1.149915240283076
1.6096185362194793,-8.39908412757152,1.1611339255541304
1.6096185362194793,-8.398876393991,1.1733724913043715
1.5847702226243243,-8.434606569840383,1.1601140450749436
1.5845192295577066,-8.457872730858588,1.196064831966277
1.5719695762268202,-8.46909034420665,1.220032023227166
1.5714675900935848,-8.503989585733954,1.2796950312595916
1.5712165970269671,-8.53888882726126,1.339613009411814
1.558415950629463,-8.586252083619746,1.3628152903133128
1.5576629714296097,-8.634030807139272,1.3862725413346084
1.5323126717012194,-8.7177474400887,1.3722491847457905
1.5195120253037153,-8.777159244117328,1.3951964955274925
1.4823650514442919,-8.811850752064114,1.4181438063091947
1.4816120722444388,-8.85900627484208,1.465823218711176
1.4570147517159016,-8.881441501538205,1.5254862267436016
1.4565127655826662,-8.90449992897589,1.5734206092653795
1.4439631122517798,-8.938983703342156,1.6333385874176019
1.407067131458974,-8.94916264878762,1.6930015954500275
1.407067131458974,-8.94833171446554,1.7294623225809542
1.3945174781280876,-8.960172528555162,1.7289523823413608
1.3824698109304367,-8.947500780143463,1.7531745437220465
1.3330241768067448,-8.981569087348689,1.78836042025399
1.2592322152211333,-9.015845128134435,1.7988141951656542
1.197989906966408,-9.014806460231837,1.7735721533057818
1.1490462589759514,-9.026024073579899,1.7605686771961506
1.1241979453807964,-9.049705701759143,1.7478201712063162
1.0875529576546084,-9.049290234598104,1.723088069586037
1.0752542973903398,-9.049082501017583,1.7228330994662404
1.026310649399883,-9.035787551864324,1.734561724976888
1.0140119891356145,-9.035579818283805,1.722323159226647
0.9653193342117756,-9.022284869130546,1.7340517847372947
0.9532716670141247,-9.009820854299365,1.7460353803677393
0.9532716670141247,-9.009820854299365,1.7460353803677393
0.9163756862213189,-9.009197653557806,1.7335418444977013
0.8917783656927818,-9.020830734066907,1.7207933385078669
0.8674320382308623,-9.020623000486388,1.7082998026378289
0.8430857107689429,-9.008158985655207,1.6963162070073845
0.831038043571292,-8.971390141903225,1.7207933385078669
0.8189903763736411,-8.959549327813603,1.696826147246978
0.7948950419783394,-8.922988217642141,1.6970811173667746
0.7828473747806886,-8.910939669971999,1.6850975217363302
0.7953970281115749,-8.875001760542096,1.6858624320957203
0.8325440019709983,-8.851735599523892,1.6988659082053514
0.8694399827638041,-8.84072571975635,1.6873922528145002
0.9304312979519116,-8.854436136070648,1.6759185974236492
0.9921755923398723,-8.819744628123862,1.6774484181424294
1.0900628883207857,-8.810188883419956,1.666994643230765
1.1633528637731616,-8.836778781726474,1.6190602607089872
1.2122965117636184,-8.838232916790114,1.5956030096876916
1.2489414994898065,-8.851735599523892,1.5716358184268027
1.2732878269517258,-8.864407347935591,1.5596522227963583
1.2853354941493766,-8.900552990946016,1.5711258781872093
1.3094308285446785,-8.937321834697999,1.5588873124369682
1.3458248232042487,-8.962665331521398,1.5346651510562825
1.3940154919948522,-9.024362204935743,1.5099330494360035
1.4424571538520734,-9.073387329938386,1.5219166450664479
1.49140080184253,-9.098523093181266,1.5221716151862446
1.5149941501045963,-9.158973565112491,1.533390300457299
1.5634358119618175,-9.207583222954096,1.557357491718188
1.5872801532905014,-9.26844916204636,1.5446089857283534
1.6113754876858033,-9.305010272217825,1.5563376112390013
1.6480204754119914,-9.329522834719146,1.5685761769892423
1.6844144700715615,-9.354035397220468,1.592798338369928
1.7331071249954006,-9.366707145632168,1.617530439990207
1.7451547921930515,-9.40326825580363,1.6047819340003724
1.7695011196549708,-9.40409919012571,1.5930533084897247
1.7331071249954006,-9.380002094785427,1.5446089857283534
1.6844144700715615,-9.355904999445144,1.4959096928471856
1.6111244946191856,-9.343440984613963,1.4224782983457385
1.5626828327619644,-9.308126275925618,1.325589652822996
1.5503841724976957,-9.321005757917838,1.2649067643113836
1.5375835261001918,-9.357151400928263,1.2519032882017522
1.5621808466287288,-9.3586055359919,1.2037139355601778
1.573977520759762,-9.420302409406244,1.1302825410587307
1.5488782140979893,-9.468912067247848,1.0685797720679315
1.4135929511910348,-9.539126017463499,1.0048372421187588
1.387740665329409,-9.65919602700387,0.9780653795401063
1.4472260221178102,-9.804817266948163,0.9762805887015295
1.5310577063681308,-9.974951069393777,0.9864793934933971
1.7122747004661292,-10.219038026504396,1.008916764035506
1.8691453671022082,-10.413892125031852,1.055831266078097
2.0016697062763678,-10.608953957139827,1.0785236067400026
2.060904069998151,-10.789889905772464,1.1124346326729624
2.072198757995949,-10.885862819972553,1.135126973334868
1.9851041638795979,-11.00344002654669,1.168018118788641
1.8862128956322137,-11.084871590110403,1.189435608851563
1.799620287649098,-11.154046872423455,1.2353302304149674
1.725326339930251,-11.236309370309247,1.244764124847445
1.7122747004661292,-11.306938787685937,1.3039171926402773
1.698721074868772,-11.414960249556168,1.3018774316819037
1.734613083395107,-11.488082469899094,1.2888739555722724
1.7210594577977496,-11.608360213019985,1.2623570631134167
1.6957091580693593,-11.704125393639556,1.2603173021550431
1.707003846067157,-11.788672960911065,1.2468038858058184
1.656554239676994,-11.908950704031955,1.1833163259764425
1.6314549330152213,-11.981241990052803,1.1453257781267354
1.5817583058249116,-12.05311780891261,1.0950966645267874
1.5687066663607898,-12.124993627772419,1.0935668438080073
1.5928020007560915,-12.16197020510492,1.069089712307525
1.6048496679537423,-12.174018752775062,1.0810733079379693
1.6173993212846287,-12.151375792498417,1.021155329785747
1.6301999676821328,-12.104012536139932,0.9979530488842482
1.6309529468819859,-12.044392998530784,0.9747507679827493
1.6068576124866842,-11.996822008591778,0.9270713555807681
1.5835152572912357,-11.90064136081117,0.8921404491686215
1.560172902095787,-11.804876180191599,0.8449709770062336
1.5737265276931443,-11.697893386223965,0.7988213853230326
1.5498821863644603,-11.63827384861482,0.7511419729210513
1.5388384914332804,-11.543131868736808,0.6800053094977746
1.5398424636997512,-11.435733607608135,0.6455843433252213
1.5774914236924102,-11.365311923811966,0.5991797815222236
1.578746389025499,-11.257705929102773,0.5767424109801148
1.5920490215562384,-11.162148482063722,0.5545600105578027
1.6051006610203602,-11.078431849114294,0.5560898312765828
1.6063556263534486,-10.982458934914204,0.5458910264847152
1.6317059260818392,-10.898534568384255,0.5718979787039776
1.6450085586125787,-10.802146187023125,0.5981599010430368
1.6824065255386198,-10.729854901002279,0.6483890146429849
1.7569514663240846,-10.622248906293086,0.711876574472361
1.8066480935143943,-10.56242163510342,0.7618507179525124
1.8442970535070533,-10.478081801412431,0.8123348016722571
1.9183400081592825,-10.406621449713663,0.8753124212620398
1.9557379750853239,-10.346378711362958,0.9252865647421913
2.017733262539902,-10.28696690733433,0.9635320827116949
2.0430835622682926,-10.19099399313424,0.9897940050507541
2.0679318758634473,-10.166896897793958,1.0147810767908299
2.09303118252522,-10.10748509376533,1.0163108975096098
2.1183814822536107,-10.023768460815901,1.0180956883481866
2.1437317819820008,-9.952723576278173,0.9954033476862812
2.1444847611818543,-9.880847757418364,0.9846946026548202
2.181882728107895,-9.834315435381956,0.9497636962426735
2.218778708900701,-9.810841540783233,0.9627671723523048
2.243376029429238,-9.811672475105313,0.951038546841657
2.2551727035602713,-9.848025851696255,0.9505286066020636
2.2677223568911575,-9.836808238348192,0.9268163854609714
2.2551727035602713,-9.860074399366397,0.9502736364822669
2.242623050229385,-9.871707479875498,0.9500186663624702
2.1808787558414244,-9.918447535492426,0.9482338755238934
2.130931135584497,-10.001333234119777,0.9581777101959644
2.081234508394187,-10.071962651496465,0.9683765149878321
2.0438365414681456,-10.131374455525092,0.9665917241492552
2.0430835622682926,-10.202211606482303,1.0259997620618841
1.9685386214828278,-10.296522652038234,1.0351786863745651
1.9067943270948673,-10.33121415998502,1.033648865655785
1.8209546983116047,-10.353441653100626,1.0201354493065602
1.7717600572545305,-10.36424379928765,1.0313541345776147
1.7469117436593755,-10.399973975137033,1.0180956883481866
1.7587084177904087,-10.436950552469536,0.9813799910974632
1.7459077713929045,-10.509865039231942,0.9194222519868673
1.7205574716645142,-10.582779525994347,0.8449709770062336
1.695960151135977,-10.606668887754111,0.8202388753859546
1.6460125308790494,-10.678544706613918,0.7817383872966542
1.5968178898219751,-10.713651681721743,0.7684799410672264
1.5468702695650476,-10.784904299839992,0.7542016143586117
1.4976756285079733,-10.820011274947817,0.7409431681291837
1.4113340135914754,-10.867166797725783,0.6904590844094389
1.398784360260589,-10.915153254825828,0.677200638180011
1.3370400658726282,-10.962516511184315,0.6392100903303041
1.2998930920132048,-10.9982466870337,0.6139680484704316
1.2383997906918618,-11.021512848051902,0.5762324707405214
1.2012528168324383,-11.057658491062325,0.5267682674999634
1.176655496303901,-11.081547852822089,0.5017811957598877
1.1026125416516719,-11.116862561510434,0.4515520821599396
1.0664695400587194,-11.079470517016892,0.4760292136604219
1.030075545399149,-11.04249393968439,0.48826777941066307
0.969586216344277,-10.968748518599904,0.5007613152807009
0.9462438611488284,-10.858649720924477,0.5752125902613346
0.8985551784914604,-10.737125576320466,0.5887260066105593
0.8877624766268981,-10.616640099619055,0.5907657675689328
0.8277751337052616,-10.495739155756604,0.5558348611567862
0.8292810921049679,-10.36382833212661,0.5339074308542707
0.8305360574380566,-10.256430070997938,0.4997414348015142
0.8317910227711451,-10.137190995779644,0.4533368729985164
0.8325440019709983,-10.065522910500356,0.43038956221681424
0.833798967304087,-9.958124649371683,0.39622356616405763
0.8222532862396715,-9.910138192271639,0.3727663151427621
0.822755272372907,-9.862774935913153,0.3370704983712254
0.8601532392989483,-9.791730051375424,0.32687169357935775
0.9093478803560227,-9.78134337234944,0.30366941267785885
0.9590445075463324,-9.71092168855327,0.2692484465053056
1.0205378088676753,-9.700950476688325,0.23406256997336225
1.1186760979152064,-9.679969385055838,0.19938663368101228
1.2170653800293552,-9.64693974575321,0.15298207187801455
1.290606348548349,-9.649640282299965,0.10555762959583002
1.364900296267196,-9.591474879754456,0.09561379492375909
1.3774499495980823,-9.568416452316772,0.059917978152222356
1.4268955837217743,-9.509627849029703,0.04946420324055803
1.4765922109120841,-9.451254712903676,0.014788266948208072
1.562933825828582,-9.393712511099725,-0.007139163354307345
1.6249291132831605,-9.346972455482797,-0.005354372515730509
1.6866734076711212,-9.28797611861521,0.00866898407308749
1.7607163623233504,-9.241651530159324,0.010453774911664326
1.810663982580278,-9.145470882378714,0.07343139450144698
1.8844559441658895,-9.110363907270887,0.11142194235115392
1.9705465660157697,-9.075256932163063,0.16165105595110202
2.1055808358561063,-9.041188624957837,0.22462867554088467
2.2037191249036376,-9.030386478770813,0.2746028190210361
2.301355427817933,-9.044304628665632,0.3000998310007052
2.411541384063115,-9.057599577818891,0.3618025999915044
2.4722817061846047,-9.082527607481252,0.3865347016117834
2.5576193488346317,-9.120127385555312,0.4112668032320624
2.6060610106918527,-9.181616525389137,0.39851829724222787
2.6299053520205367,-9.24269019806192,0.3735312255021522
2.6173556986896505,-9.267410494143762,0.3245769625011875
2.6048060453587643,-9.291507589484045,0.2998448608809085
2.592256392027878,-9.327860966074988,0.2748577891408328
2.5797067386969914,-9.352788995737349,0.21366496038962696
2.567408078432723,-9.36462980982697,0.2011714245195891
2.5797067386969914,-9.366083944890608,0.14074350612777337
2.579957731763609,-9.342817783872405,0.10479271923643996
2.543563737104039,-9.318512954951602,0.06858696222530986
2.5074207355110865,-9.270318764271037,0.03263617533397643
2.471026740851516,-9.246013935350236,0.0084140139532908
2.422334085927677,-9.209452825178772,-0.028046713177635997
2.3495460966085364,-9.16021996659561,-0.05226887455832163
2.325199769146617,-9.14775595176443,-0.0645074403085628
2.313403095015584,-9.110987108012447,-0.03977533868828378
2.276507114222778,-9.110571640851408,-0.0645074403085628
2.3139050811488193,-9.063208384492922,-0.05099402395933818
2.301606420884551,-9.05115983682278,-0.06323258970957935
2.2898097467535177,-9.026647274321459,-0.05073905383954149
2.277511086489249,-9.013975525909759,-0.03875545820909702
2.22881843156541,-8.988632029086357,-0.026771862578652543
2.2047230971701084,-8.952070918914895,-0.026516892458855853
2.1678271163773024,-8.962873065101919,-0.0030596414375602906
2.1311821286511146,-8.962042130779839,-0.0033146115573569816
2.0822384806606578,-8.94874718162658,-0.0038245517969503636
2.0089485052082816,-8.935036765312281,-0.004589462156340436
1.9233598694916372,-8.921118615417463,-0.005609342635527199
1.8259745596439594,-8.883103370182363,-0.018357848625361745
1.7283382567296637,-8.844672657786223,-0.006884193234510654
1.6552992743439054,-8.794608864880981,0.005099402395933818
1.5945589522224155,-8.74392187123418,0.06552732078774956
1.5586669436960807,-8.682848198561397,0.0782758267775841
1.5471212626316653,-8.597885164128849,0.1037728387572532
1.5355755815672498,-8.537642425778143,0.10479271923643996
1.5365795538337208,-8.441461777997533,0.1065775100750168
1.4883888850431173,-8.379972638163709,0.11907104594505465
1.439947223185896,-8.318898965490924,0.11958098618464803
1.3797088871976417,-8.233104996736298,0.13232949217448256
1.3435658856046893,-8.172654524805072,0.10861727103339032
1.3322711976068915,-8.087899223953045,0.12213068738261494
1.2838295357496703,-8.038666365369883,0.12238565750241163
1.2725348477518728,-7.966375079349035,0.1234055379815984
1.2853354941493766,-7.906340074578849,0.13691895433082302
1.2491924925564242,-7.857522683156725,0.12519032882017522
1.2742917992181968,-7.797695411967059,0.1506873407998443
1.2499454717562772,-7.773182849465737,0.13870374516939984
1.238148797625244,-7.748254819803376,0.17541944242012333
1.2140534632299425,-7.711693709631913,0.17567441253992003
1.2020057960322916,-7.67492486587993,0.20040651416019903
1.1651098152394859,-7.697775559737095,0.21162519943125344
1.1899581288346406,-7.6618376503071906,0.23661227117132916
1.1781614547036074,-7.625068806555208,0.26134437279160816
1.1902091219012585,-7.637117354225349,0.27358293854184934
1.2148064424297955,-7.613227992465586,0.29857001028192504
1.2150574354964134,-7.601179444795445,0.29857001028192504
1.2271051026940643,-7.613020258885067,0.32279217166261065
1.2514514301559836,-7.625484273716247,0.32304714178240734
1.287845424815554,-7.650204569798089,0.33503073741285183
1.3239884264085067,-7.710655041729314,0.3587429585539441
1.3967764157276472,-7.7844004628137995,0.3584879884341474
1.4570147517159016,-7.857522683156725,0.38220020957523965
1.505205420506505,-7.942485717589272,0.39341889484629405
1.5531450962304907,-8.02703328486078,0.4288597414980341
1.5890371047568257,-8.111580852132288,0.45206202239953297
1.6246781202165428,-8.195920685823276,0.4872478989314763
1.648271468478609,-8.280052785933744,0.5104501798329751
1.672115809807293,-8.33988005712341,0.5581295922349564
1.7077568252670101,-8.42463535797544,0.5690933073862141
1.7436488337933451,-8.508767458085908,0.6042791839181574
1.8282334972435188,-8.619073989341855,0.6035142735587673
1.8636235196366182,-8.739974933204307,0.6019844528399872
1.8992645350963353,-8.824730234056334,0.6129481679912449
1.9226068902917839,-8.945631177918786,0.5989248114024269
1.9462002385538502,-9.018337931100671,0.5981599010430368
1.9449452732207615,-9.126567126551423,0.5961201400846633
1.9321446268232576,-9.19906614615279,0.5583845623547531
1.907045320161485,-9.247052603252834,0.532887550375084
1.8570976999045574,-9.330353769041224,0.5186092236664692
1.8806910481666237,-9.415316803473772,0.5053507774370414
1.8796870759001527,-9.511289717673861,0.5035659865984645
1.8781811175004464,-9.656287756876594,0.4645555582695708
1.9010214865626596,-9.81312661016895,0.4620058570716039
1.8987625489631,-10.004864704988611,0.48291340689493256
1.908802271627809,-10.209274548219971,0.49132742084822334
1.9188419942925181,-10.413476657870811,0.5119800005517553
1.940929384154878,-10.630142782352834,0.5206489846248428
1.9507181137529692,-10.846601173254335,0.528808028458337
1.973056496681947,-11.051218750066216,0.5377319826512211
1.958498898818119,-11.243164578466397,0.5339074308542707
1.9690406076160634,-11.411428778687332,0.5430863551669516
1.9303876753569336,-11.591118325836852,0.5272782077395568
1.9406783910882603,-11.746918511226609,0.5609342635527199
1.9386704465553184,-11.93824113888523,0.6180475703871787
1.9482081830867921,-12.165917143134795,0.662412371231803
1.9577459196182656,-12.405226227893461,0.7309993334571128
1.9795823164140078,-12.656791593902788,0.799331325562626
2.0137173734740186,-12.87304225122377,0.8442060666468435
2.0237570961387275,-13.088461974222673,0.9010644033615056
2.0827404667938936,-13.280200069042333,0.9951483775664846
2.129927163318026,-13.423743973181429,1.0902522322506503
2.1532695185134743,-13.518470485898401,1.1975946526850572
2.164564206511272,-13.600317516623154,1.3294142046199464
2.1643132134446543,-13.622129542577719,1.4500150712837812
2.127166239585231,-13.630854352959545,1.5703609678278192
2.091023237992278,-13.567911078062084,1.6799981193403963
2.042581576135057,-13.517431817995803,1.7529195736022498
2.0192392209396086,-13.406917553159335,1.8390994740935314
1.9587498918847366,-13.332341197752772,1.9002923028447372
1.9246148348247258,-13.077036627294092,2.0132440659146713
1.8543367761717624,-12.785586413824987,2.090245042093272
1.758457424723791,-12.59114778245857,2.080301207421201
1.6020887442209473,-12.33522001125833,2.082595938499371
1.4826160445109096,-12.056649279781444,2.0497047930455983
1.4005413117269132,-11.742348372455176,2.054039285082142
1.318215585876299,-11.428255198709428,2.0344065858577967
1.2730368338851081,-11.066383301444151,2.0525094643633617
1.2399057490915681,-10.740241580028261,2.0940695938902225
1.1824283368361088,-10.41472305935393,2.0871854006557116
1.0752542973903398,-10.136152327877046,2.0665328209521796
1.0167729128684095,-9.882509626062522,2.058118806998889
0.9085949011561695,-9.687863261115586,2.0601585679572625
0.788871208379514,-9.445853639810164,2.0022803507634137
0.6927408638649247,-9.276135304525589,1.9556208188406192
0.6335065001431414,-9.095407089473472,1.9094712271574181
0.5617224830904716,-8.949993583109698,1.8870338566153093
0.48918548683794866,-8.864822815096632,1.851083069723976
0.46584313164250013,-8.76926536805758,1.7919300019311435
0.42970013004954755,-8.733950659369237,1.7195184879088834
0.44224978338043386,-8.711307699092592,1.659600509756661
0.40510280952101035,-8.747868809264054,1.5859141451354173
0.4168994836520435,-8.797309401427738,1.5247213163842115
0.41589551138557257,-8.882687903021324,1.462508607153819
0.4025928788548331,-8.979491751543492,1.412279493553871
0.47462788897412056,-9.126774860131942,1.337828218573237
0.5587105662910589,-9.274057968720392,1.2758704794626412
0.679689224400803,-9.42258747879196,1.190200519210953
0.7514732414534727,-9.58233460221159,1.0915270828496337
0.7986599379776053,-9.753299338979284,1.0043273018791654
0.7846043262470126,-9.93485848835348,0.9283462061797515
0.7830983678473062,-10.079441060395174,0.901574343601099
0.7938910697118685,-10.211975084766728,0.8992796125229288
0.8531254334336519,-10.394157434882482,0.872762720064073
0.9369571176839725,-10.563875770167057,0.8949451204863851
1.032836469131944,-10.745642653121774,0.9293660866589383
1.0677245053918079,-10.92678633533493,0.9265614153411748
1.1400105085777132,-11.024421118179177,0.9380350707320257
1.175902517104048,-11.097543338522103,0.9250315946223946
1.2120455186970005,-11.15820154403385,0.9365052500132457
1.2481885202899532,-11.219275216706633,0.9359953097736523
1.3091798354780606,-11.231946965118334,0.9729659771441724
1.3214784957423293,-11.232570165859892,0.9487438157634868
1.3581234834685174,-11.245241914271594,0.9612373516335246
1.3947684711947055,-11.245865115013151,0.9737308875035625
1.3950194642613232,-11.20888853768065,1.0229401206243238
1.419867777856478,-11.184999175920886,1.0479271923643996
1.4457200637181038,-11.053088352290892,1.0627154593126076
1.4595246823820789,-10.9201388607583,1.1137094832719459
1.4981776146412087,-10.739826112867222,1.1659783578302674
1.5365795538337208,-10.571561912646285,1.2179922622687924
1.562933825828582,-10.40267451168379,1.2817347922179652
1.5892880978234434,-10.233579377140773,1.357715887917379
1.5907940562231497,-10.076532790267898,1.3969812863660693
1.653793315944199,-9.920317137717102,1.47321735218528
1.667597934608174,-9.763686018005266,1.5127377207537671
1.7057488807340684,-9.643823742045415,1.5395095833324197
1.756449480190849,-9.487815823075138,1.5915234877709445
1.7697521127215885,-9.391635175294528,1.617530439990207
1.8076520657808652,-9.271772899334676,1.6445572726886564
1.8330023655092555,-9.199689346894349,1.670309254788122
1.8952486460304518,-9.092706552926716,1.6850975217363302
1.9449452732207615,-9.045343296568229,1.7108495038357958
1.970295572949152,-8.96245759794088,1.6764285376632426
2.03229086040373,-8.87894869857197,1.7151839958723396
2.0450915068012345,-8.843426256303104,1.7039653106012853
2.070190813463007,-8.783391251532919,1.7294623225809542
2.095039127058162,-8.748699743586133,1.694276446049011
2.0955411131913975,-8.700505552905568,1.695041356408401
2.1080907665222837,-8.689287939557506,1.6713291352673088
2.0716967718627135,-8.652519095805523,1.6593455396368644
2.083995432126982,-8.653142296547083,1.6473619440064198
2.071445778796096,-8.677862592628923,1.5984076810054553
2.071947764929331,-8.64234015036006,1.5627118642339184
2.035302777203143,-8.642547883940578,1.5137576012329539
2.0230041169388744,-8.643378818262658,1.4530747127213415
2.010454463607988,-8.668306847925018,1.3918818839701357
1.9861081361460686,-8.668099114344498,1.3674047524696533
1.9492121553532629,-8.69261167684582,1.3059569535986508
1.9248658278913435,-8.669137782247097,1.2455290352068351
1.9125671676270748,-8.680978596336718,1.2330354993367971
1.875922179900887,-8.681394063497757,1.1718426705855913
1.8513248593723497,-8.680978596336718,1.1596041048353503
1.8026322044485108,-8.668930048666578,1.1106498418343855
1.7659872167223227,-8.668930048666578,1.0616955788334208
1.7288402428628993,-8.69281941042634,1.024469941343104
1.680398581005678,-8.656258300254878,0.9880092142121772
1.6312039399486036,-8.66747591360294,0.9752607082223427
1.5825112850247647,-8.65501189877176,0.9382900408518224
1.5581649575628453,-8.630914803431477,0.9143228495909336
1.5092213095723885,-8.630291602689917,0.8893357778508578
1.4728273149128184,-8.617827587858738,0.8648586463503755
1.460277661581932,-8.629876135528878,0.8523651104803377
1.460277661581932,-8.630083869109399,0.8403815148498932
1.4113340135914754,-8.62883746762628,0.8396166044905031
1.3992863463938245,-8.62883746762628,0.827378038740262
1.3992863463938245,-8.616996653536658,0.8153944431098175
1.3990353533272069,-8.640470548135381,0.8513452300011509
1.411585006658093,-8.61678891995614,0.8518551702407443
1.3867366930629381,-8.640262814554863,0.8510902598813542
1.3867366930629381,-8.639431880232783,0.887550987012281
1.4110830205248577,-8.664359909895145,0.8753124212620398
1.4231306877225085,-8.664152176314625,0.8997895527625221
1.4600266685153143,-8.652311362225003,0.9367602201330424
1.4723253287795828,-8.652311362225003,0.9489987858832835
1.5092213095723885,-8.62821426688472,0.9984629891238416
1.4971736423747377,-8.615334784892502,1.0226851505045271
1.49692264930812,-8.626967865401603,1.046652341765416
1.4966716562415023,-8.650649493580845,1.0703645629065084
1.5212689767700396,-8.638600945910705,1.0950966645267874
1.5702126247604962,-8.651272694322405,1.1198287661470665
1.5943079591557978,-8.675992990404247,1.1195737960272698
1.6430006140796367,-8.712554100575709,1.1437959574079553
1.6550482812772875,-8.72439491466533,1.168018118788641
1.6796456018058248,-8.712761834156229,1.1807666247784756
1.679394608739207,-8.72481038182637,1.180511654658679
1.7162905895320129,-8.713592768478307,1.181276565018069
1.728087263663046,-8.75036161223029,1.15654446339779
1.7406369169939324,-8.738728531721188,1.1567994335175866
1.7403859239273145,-8.76261789348095,1.15654446339779
1.764732251389234,-8.76344882780303,1.144815837887142
1.764732251389234,-8.77612057621473,1.1081001406364186
1.7767799185868849,-8.800633138716051,1.0958615748861775
1.7521825980583476,-8.800217671555012,1.0953516346465841
1.7398839377940791,-8.812058485644634,1.0828580987765462
1.7278362705964283,-8.799802204393973,1.0831130688963428
1.6909402898036225,-8.811227551322554,1.0701095927867117
1.6781396434061184,-8.8465422600109,1.0935668438080073
1.6540443090108168,-8.821614230348539,1.117789005188693
1.6655899900752322,-8.869600687448584,1.129262660579544
1.6412436626133127,-8.868354285965466,1.1652134474708773
1.6286940092824265,-8.879987366474568,1.1769420729815252
1.640992669546695,-8.879987366474568,1.1891806387317663
1.6040966887538892,-8.903461261073291,1.1761771626221351
1.6163953490181577,-8.89162044698367,1.1766871028617285
1.5915470354230028,-8.914886608001874,1.1879057881327828
1.578746389025499,-8.962873065101919,1.1749023120231517
1.5544000615635793,-8.9616266636188,1.210853098914485
1.5415994151660752,-9.010028587879885,1.1856110570546126
1.5170020946375382,-9.021453934808466,1.1851011168150192
1.4793531346448792,-9.093122020087755,1.1590941645957569
1.4670544743806107,-9.104547367016337,1.1708227901064046
1.4542538279831065,-9.164166904625484,1.1815315351378657
1.4414531815856024,-9.199689346894349,1.19275022040892
1.4414531815856024,-9.210906960242411,1.2409395730504946
1.4404492093191317,-9.29462359319184,1.2636319137124001
1.4276485629216276,-9.341363648808766,1.3110563559945845
1.4148479165241235,-9.388726905167253,1.3342586368960834
1.4507399250504585,-9.44855417635692,1.3941766150483057
1.4135929511910348,-9.495294231973846,1.417123925830008
1.4256406183886858,-9.494671031232288,1.4655682485913792
1.4499869458506052,-9.50630411174139,1.5142675414725473
1.4376882855863367,-9.505265443838791,1.5504732984836773
1.4379392786529543,-9.48033741417643,1.5991725913648454
1.4256406183886858,-9.49217822826605,1.5989176212450487
1.438190271719572,-9.46808113292577,1.6114111571150864
1.4010432978601486,-9.491555027524493,1.5984076810054553
1.4261426045219212,-9.455824851675109,1.6116661272348831
1.3894976167957331,-9.443776304004967,1.5749504299841597
1.3774499495980823,-9.431520022754306,1.562966834353715
1.3777009426647,-9.408046128155583,1.539254613212623
1.3533546152027804,-9.396205314065961,1.502793886081696
1.3164586344099747,-9.395374379743883,1.5022839458421027
1.341055954938512,-9.40887706247766,1.4538396230807316
1.3408049618718942,-9.421133343728322,1.4416010573304903
1.3280043154743901,-9.481791549240068,1.3918818839701357
1.327251336274537,-9.554082835260914,1.378368467620911
1.3264983570746838,-9.6267895884428,1.3528714556412418
1.3129447314773266,-9.747275065144214,1.3143709675519415
1.311689766144238,-9.855919727756003,1.2881090452128825
1.3101838077445316,-9.988661485708075,1.2615921527540266
1.3578724904018997,-10.110185630312087,1.2478237662850051
1.3930115197283812,-10.26743995076548,1.2335454395763905
