accx,accy,accz
6.95130634874737,-3.3260651197331925,5.805121750872364
6.646452939779258,-3.2235208491882394,5.778535030591744
6.366247253238354,-3.073384261691801,5.75301177912235
6.074366329758246,-2.911472255568191,5.703383234598526
5.806484504430947,-2.7981338512816634,5.6413475539437465
5.575574262744461,-2.650450475999219,5.5438629129148085
5.404986078577198,-2.5277898652995145,5.471192544147781
5.308989685965963,-2.395807048186632,5.338967921952166
5.176021709713914,-2.2495956002325843,5.2790591789198364
5.128023513408296,-2.1426355477024415,5.171648828986133
5.092997802590683,-2.000839881733583,4.991922599889144
5.081971189925879,-1.9066365327162098,4.872459603428227
5.08391706274908,-1.7771069278173217,4.74200742925132
5.096889548237084,-1.719211119567061,4.634242589713875
5.110510657999489,-1.6024382181809422,4.491383279406012
5.135158380426699,-1.5563178285578532,4.395671086395781
5.222074033196331,-1.4994033051931903,4.349232948305632
5.332988784118772,-1.418447302131385,4.303858279026708
5.480226494407626,-1.3737988398366927,4.3066941958566405
5.578817384116463,-1.3409257961691718,4.272663193897448
5.7507028168325265,-1.2859738425757041,4.203183231564095
5.860968943480567,-1.2766516361625264,4.192903033055589
5.9965314168302175,-1.2079616941706919,4.171988146434835
6.106797543478258,-1.1986394877575144,4.161353458322587
6.19306457197349,-1.1790137900455615,4.041890461861669
6.316303184109535,-1.1216086242380998,4.056779025218816
6.402570212604767,-1.074997592172212,4.083011255895694
6.513484963527208,-1.0283865601063242,4.121650622703528
6.5498079228936215,-1.0298584874347207,4.1103069553837965
6.575104269595231,-0.9464492721589215,4.100026756875291
6.5634290326560265,-0.9214265075761817,4.136539186060675
6.564077656930427,-0.8375266498575836,4.113851851421213
6.576401518144031,-0.825751231230412,4.114206341024954
6.589374003632036,-0.8031816788616664,4.066350244519839
6.674992407852868,-0.79336883000569,4.055715556407591
6.772934673287304,-0.796312684662483,4.008568439109959
6.9078485223625545,-0.812503885274844,3.949723164888854
7.091409192017822,-0.8061255335184593,3.87988871295176
7.2872937228866945,-0.8478301411563589,3.8213979283343966
7.507177351908376,-0.8787406150526844,3.7271036937391324
7.776356425784475,-0.8978756703218383,3.6700308675367355
8.044886875386174,-0.977359746055247,3.6115400829193725
8.27709436562146,-1.0308397723203182,3.601968863618349
8.496977994643142,-1.1201366969097033,3.5913341755061015
8.655890941871201,-1.1608600196620054,3.5562397047356837
8.753184583031237,-1.1760699353887687,3.5090925874380514
8.802480027885654,-1.1785231476027627,3.4371311978785077
8.851775472740073,-1.1692009411895852,3.3410645152645353
8.864747958228078,-1.123080551566496,3.269457615308733
8.913394778808096,-1.1245524788948926,3.2460613014617876
9.011337044242532,-1.1147396300389163,3.23542661334954
9.085280211524159,-1.1044361387401411,3.236844571764506
9.158574754531386,-1.1059080660685376,3.2620133336301596
9.207870199385805,-1.1063987085113365,3.2868276058920713
9.244193158752218,-1.107379993396934,3.2751294489685985
9.317487701759445,-1.1088519207253305,3.2882455643070374
9.354459285400258,-1.1216086242380998,3.288600053910779
9.403754730254677,-1.1108144904965258,3.289309033118262
9.451752926560294,-1.148103316149236,3.277256386591048
9.476400648987504,-1.161350662104804,3.2531510935366197
9.525696093841923,-1.1618413045476028,3.2779653657985315
9.525696093841923,-1.1495752434776325,3.290372501929487
9.525696093841923,-1.1500658859204314,3.2662672088750586
9.538019955055526,-1.1387811097360585,3.254569051951586
9.538019955055526,-1.126515048666088,3.2669761880825416
9.587315399909945,-1.1039454962973423,3.2559870103665522
9.624286983550759,-1.0921700776701706,3.26874863610125
9.660609942917173,-1.1054174236257388,3.2566959895740357
9.68525766534438,-1.1186647695813068,3.232590696519607
9.672933804130777,-1.1304401882084785,3.220183560388651
9.635962220489963,-1.1299495457656796,3.1953692881267397
9.550343816269132,-1.1044361387401411,3.182607662392042
9.453698799383496,-1.0431058333902887,3.1219899401522295
9.33175743579625,-0.9572434059004955,3.0734248644396307
9.259111517063424,-0.871871620853501,3.0376214144617295
9.260408765612224,-0.7761963445077313,3.0273412159532236
9.27338125110023,-0.7168286089290743,3.0042993917100196
9.311001459015444,-0.6456854547232456,2.9940191932015137
9.38494462629707,-0.5863177191445884,3.0323040704056057
9.508183238433116,-0.5048710736399845,3.0595997698937087
9.631421850569161,-0.4234244281353806,3.062790176327383
9.81627976877323,-0.35473448614354597,3.103201991153925
9.987516577214892,-0.3336368611031968,3.166301140619929
10.171725871144561,-0.3002731749928771,3.230109269293416
10.33128744264702,-0.2786849075097291,3.29320841875942
10.502524251088683,-0.281628762166522,3.355953078621682
10.662085822591143,-0.2718159133105456,3.4431575211421146
10.857321729185614,-0.287025829037309,3.5062566706081184
11.041531023115283,-0.2772129801813326,3.617920895786721
11.225091692770551,-0.2674001313253562,3.7175324744381095
11.371680778785004,-0.28113811972372316,3.7919752912238445
11.444975321792231,-0.3051795994208653,3.877052796121827
11.530593726013063,-0.2934041807936936,3.975246416358249
11.553944199891472,-0.36454733499952235,4.059260452445007
11.541620338677868,-0.3988923059954397,4.130867352400809
11.492324893823449,-0.43274663454855816,4.190067116225656
11.393734004114613,-0.4896611579132212,4.2482034112392775
11.270495391978567,-0.5460850388350853,4.293932570121943
11.134932918628918,-0.6142843383841211,4.314847456742697
11.073313612560895,-0.6486293093800385,4.33753479138216
11.024018167706476,-0.6824836379331569,4.397089044810747
11.011045682218471,-0.7413607310690152,4.431829025977424
10.998073196730466,-0.8007284666476723,4.4669234967478415
11.00909980939527,-0.8723622632962998,4.502372457122001
11.081745728128098,-0.9454679872733238,4.538175907099903
11.191363230501738,-1.0195549961359454,4.562635689758072
11.300980732875379,-1.0931513625557683,4.611200765470671
11.422273472188223,-1.166747728975591,4.6842256238414395
11.506594627860254,-1.2761609937197276,4.719674584215599
11.554592824165873,-1.3615327787667222,4.706912958480902
11.541620338677868,-1.4576986975552906,4.692733374331238
11.540971714403467,-1.519029002905143,4.643104829807415
11.564970812556275,-1.5803593082549954,4.594185264491075
11.625941494349899,-1.6063633577233327,4.558027324909432
11.71155989857073,-1.6205919885644984,4.547038147193442
11.747882857937144,-1.6583714566600076,4.510525718008058
11.759558094876349,-1.7069450584970907,4.497764092273361
11.698587413082725,-1.7069450584970907,4.42438474429885
11.624644245801099,-1.7309865381942326,4.337889280985901
11.526701980366662,-1.7304958957514338,4.252102796880435
11.404760616779416,-1.6691655904015816,4.166670802378711
11.308115599893782,-1.608325927494528,4.093645944007942
11.211470583008145,-1.486646601680421,4.034091690579354
11.175796247916132,-1.3791959067074797,3.9748919267545078
11.127798051610515,-1.2697826419633431,3.9642572386422597
11.129095300159316,-1.1741073656175733,3.941924393606539
11.166066883800129,-1.1274963335516857,3.9188825693633356
11.228334814142551,-1.0808853014857978,3.9206550173820434
11.313304594088983,-1.0951139323269636,3.9093113500623122
11.423570720737024,-1.121117981795301,3.934834601531707
11.533188223110665,-1.1834295720307508,3.935189091135449
11.618158003057095,-1.245250519823402,3.9592943841898776
11.703127783003527,-1.318846886243225,3.983399677244306
11.800421424163563,-1.3929338951058465,3.995806813375262
11.8970664410492,-1.4792869650384386,3.99545232377152
11.98203622099563,-1.5769248111554035,4.019203127222207
12.09100509909487,-1.6637685235307946,4.019203127222207
12.175326254766901,-1.7854478493449015,4.030192304938196
12.247323549225328,-1.9311686548561509,4.040472503446702
12.294673121256546,-2.100930940064542,4.013885783166083
12.316726346586155,-2.282468643900105,3.986944573281722
12.290781375610145,-2.4384929407101295,3.947241737662663
12.277160265847739,-2.5950078799629526,3.920300527778302
12.275863017298938,-2.6921550836371186,3.8820156505742096
12.25056667059733,-2.7873397175400894,3.87988871295176
12.200622601468512,-2.8712395752586874,3.853656482274882
12.113706948698878,-2.9418920870217176,3.8146626258633063
11.990468336562834,-3.0478708546662623,3.7749597902442478
11.81793427957237,-3.1175420815436947,3.698744525439805
11.68302043049712,-3.1401116339124404,3.6235927294465866
11.511134997781056,-3.2088015759042747,3.583889893827528
11.302926605698579,-3.216651854989056,3.544541547812211
11.11936593604331,-3.225483418959435,3.4931405552696795
10.874185960320021,-3.2210676369742455,3.4293324265961926
10.62965460887113,-3.1926103752919137,3.365878787526447
10.348800298055826,-3.1391303490268427,3.3024251484567015
10.043298264813313,-3.0861409652045704,3.214511726728786
9.737796231570801,-3.008128816799558,3.1510580876590404
9.432942822602687,-2.9173599648817765,3.112064231247465
9.078793968780158,-2.8270817554067937,3.0241508095195493
8.749292837384836,-2.7009866476074973,2.9369463669991167
8.419791705989514,-2.598442377062544,2.873847217533113
8.103263060082197,-2.4723472692632478,2.799049911143636
7.810084888053288,-2.3702936411610938,2.748357897808588
7.566202160878798,-2.293753420084478,2.69766588447354
7.3586423930707205,-2.229969902520631,2.635630203818761
7.1264349028354355,-2.189737222211128,2.584583700879971
6.906551273813753,-2.1377291232744535,2.5218390410177087
6.711963991493682,-2.050394768456264,2.460157849966671
6.5413758073264185,-1.963060413638074,2.398831148519375
6.370787623159155,-1.9120335995869968,2.361255250522766
6.2241985371447015,-1.849722009351547,2.311981195602684
6.077609451130248,-1.8109612563704403,2.2740508080023334
5.943344226329398,-1.7604250847621619,2.236829399609466
5.833726723955757,-1.735402320179422,2.1630955620312142
5.7241092215821165,-1.6966415671983155,2.162386582823731
5.675462401002099,-1.659843383988404,2.1503339362965166
5.626815580422081,-1.646596038032836,2.1375723105618194
5.5898439967812665,-1.6456147531472383,2.1613231140125064
5.5898439967812665,-1.65739017177441,2.1613231140125064
5.601519233720471,-1.6936977125415225,2.160614134805023
5.613843094934076,-1.705963773611493,2.172666781332237
5.613843094934076,-1.7054731311686941,2.1847194278594517
5.650814678574889,-1.6819222939143508,2.209888189725105
5.699461499154907,-1.6946789974271201,2.2347024619870166
5.699461499154907,-1.7069450584970907,2.234347972383275
5.748108319734925,-1.719211119567061,2.2591622446451867
5.735784458521321,-1.7309865381942326,2.270860401568659
5.748108319734925,-1.743743241707002,2.2467551085142308
5.784431279101339,-1.7682753638469428,2.270860401568659
5.833078099681357,-1.7810320673597122,2.271214891172401
5.89404878147498,-1.7820133522453099,2.296383653038054
5.967343324482206,-1.81930217789802,2.332896082223438
6.076960826855847,-1.8565910035507303,2.38217013714352
6.186578329229487,-1.8943704716462393,2.431444192063602
6.259224247962314,-1.9664949107376657,2.5158127177541014
6.405813333976768,-2.0292971434159144,2.565441262277925
6.539429934503218,-2.091118091208566,2.638820610252435
6.685370396243272,-2.2010219983955013,2.711490979019462
6.8313108579833255,-2.2868844258852943,2.784515837390231
6.989575180936985,-2.3972789755150288,2.869238852684472
7.134867018402638,-2.507673525144763,2.941909221451499
7.268483618929087,-2.604820728818929,3.026986726349482
7.377452497028328,-2.7387661157030063,3.0865409797780696
7.461773652700359,-2.8354226769343738,3.1464497228103996
7.5953902532268085,-2.945817226564108,3.206712955446471
7.740682090692462,-3.0802532558909843,3.2549235415553275
7.9346207487381335,-3.226955346287831,3.363751849903997
8.202502574065432,-3.4109462623373883,3.4853417839873644
8.555354179339163,-3.58463368708817,3.6324549695401265
8.944528743979307,-3.8304455509303783,3.815017115467048
9.38235012919947,-4.08754219095696,4.082656766291953
9.794875167718022,-4.404987851447795,4.324773165647462
10.145780900168551,-4.745984349192974,4.517261020479149
10.424040713886255,-5.074224143425384,4.6604748203907524
10.616033499108726,-5.400992010329397,4.766112722305748
10.748352851086374,-5.642878734629215,4.848354310373798
10.782081313355187,-5.870046185645068,4.953637722685052
10.756136342379177,-6.012332494056725,5.023472174622146
10.644572967182336,-6.116839334372874,5.080545000824543
10.497335256893482,-6.148240450711998,5.150379452761637
10.38642050597104,-6.203683046748265,5.256726333884116
10.25150665689579,-6.247350224157359,5.314508139293996
10.067297362966123,-6.265994636983715,5.38434259123109
9.859088970883645,-6.272372988740099,5.429717260510015
9.589909897007546,-6.229196453773803,5.475091929788938
9.284407863765033,-6.161978439110365,5.471901523355264
8.97955445479692,-6.057962241237016,5.517985171841672
8.674701045828808,-5.918619787482151,5.540672506481134
8.468438526569532,-5.7321756592186,5.613697364851903
8.273851244249459,-5.605589908976505,5.710118537069616
8.189530088577428,-5.4691913098784335,5.832417450360467
8.190178712851829,-5.382347597503042,5.979176146309487
8.251798018919851,-5.357815475363101,6.089422413073123
8.373739382507097,-5.370081536433072,6.211721326363974
8.532652329735155,-5.420127065598551,6.309914946600395
8.76421119569604,-5.496176644232368,6.384357763386131
9.021066408358536,-5.500592426217557,6.448520381663359
9.266246384081827,-5.5172742692727175,6.499921374205891
9.486778637377908,-5.497157929117966,6.551676856352163
9.658664070093971,-5.429449272011729,6.543523595466107
9.757254959802808,-5.3720441062042665,6.509492593506914
9.795523791992421,-5.277840757186894,6.451356298493292
9.783848555053218,-5.195412826796693,6.367696752010276
9.711851260594791,-5.086980846938153,6.284037205527259
9.663853064289173,-4.991305570592384,6.200377659044243
9.677474174051579,-4.873060741877868,6.130188717503406
9.678122798325978,-4.825468424926383,6.094739757129247
9.702770520753187,-4.802898872557638,6.058936307151346
9.691095283813983,-4.790142169044868,6.0592907967550875
9.556181434738733,-4.787688956830873,6.045111212605423
9.373269389357866,-4.735680857894199,6.019233471532288
9.165709621549789,-4.684163401400323,5.956843301273767
8.910151657436094,-4.522742037719512,5.907923735957427
8.642269832108795,-4.3613206740387005,5.870702327564559
8.338713671689483,-4.17438590333235,5.845533565698906
8.046184123934975,-4.000207836138769,5.820364803833252
7.765978437394072,-3.8618466672695027,5.794841552363858
7.522744334493981,-3.747526978097378,5.81752888700332
7.364480011540323,-3.646454634880821,5.877792119639391
7.291185468533096,-3.619959942969685,5.93770086267172
7.266537746105887,-3.59297460861575,6.058936307151346
7.278861607319492,-3.5919933237301525,6.131606675918373
7.291185468533096,-3.6022968150289274,6.228382337739829
7.352804774601119,-3.5782553353317854,6.302470664921822
7.352804774601119,-3.5537232131918444,6.338983094107206
7.353453398875519,-3.4933741927275896,6.352453699049387
7.341778161936315,-3.4207591111933646,6.353517167860612
7.293779965630697,-3.37267615179908,6.305306581751755
7.208810185684266,-3.287795009194885,6.245043349115684
7.148488128165043,-3.192119732849115,6.148976666501711
7.076490833706616,-3.083687752990576,6.065317120018695
7.00384491497379,-3.0007691801575755,5.908632715164909
6.968819204156177,-2.9065658311402025,5.7764080929692945
6.933144869064163,-2.8123624821228295,5.6204326673229925
6.946117354552168,-2.718159133105456,5.525429453520245
6.959738464314573,-2.6244464265308816,5.418373593190283
7.009682533443391,-2.5547751996534496,5.347830162045706
7.083625700725019,-2.4978606762887865,5.289339377428343
7.169892729220251,-2.464006347735668,5.267006532392622
7.243187272227479,-2.466459559949662,5.219504925491249
7.341778161936315,-2.4330958738393424,5.209579216586484
7.390424982516333,-2.4355490860533364,5.1496704735541545
7.452044288584355,-2.4252455947545615,5.114221513179995
7.46436814979796,-2.402676042385816,5.054312770147665
7.440369051645151,-2.3791252051314724,4.994049537511594
7.417018577766743,-2.320248111995614,4.910035501424836
7.343724034759515,-2.27216515260133,4.837010643054067
7.271078116026689,-2.2113254896942762,4.764694763890782
7.198432197293862,-2.1514671116728206,4.67997174859654
7.101138556133826,-2.0783613876957965,4.607301379829513
6.966873331332976,-2.041563204485885,4.485002466538663
6.857904453233735,-1.968457480508861,4.400279451244422
6.748286950860095,-1.8958423989746358,4.303149299819225
6.651641933974459,-1.811451898813239,4.206373637997769
6.566672154028028,-1.7265707562090433,4.1464648949654395
6.494026235295201,-1.6784877968147591,4.061387390067456
6.4337041777759785,-1.6063633577233327,3.9894260005079127
6.361058259043152,-1.5332576337463086,3.929162767871842
6.325383923951139,-1.438072999843338,3.8575558679160395
6.2644132421575165,-1.3894993980062549,3.7972926352799683
6.253386629492712,-1.294314764103284,3.7260402249279077
6.229387531339904,-1.2354376709674257,3.654078835368364
6.218360918675099,-1.1755792929459699,3.60657722846699
6.243657265376709,-1.1054174236257388,3.547731954245885
6.256629750864714,-1.0465403304898804,3.5005848369482533
6.305925195719132,-1.0004199408667915,3.465844855781577
6.35522064057355,-0.9542995512437026,3.406999581560472
6.453811530282386,-0.9091604465062112,3.385021226128493
6.552402419991223,-0.888062821465862,3.3382285984346023
6.662668546639264,-0.8674558388683117,3.2917904603444534
6.772934673287304,-0.8458675713851636,3.305615554890376
6.8715255629961405,-0.8365453649719861,3.2832827098546553
6.969467828430577,-0.8144664550460392,3.285055157873363
7.055734856925809,-0.7938594724484888,3.2258553940485166
7.153677122360245,-0.7845372660353113,3.1911154128818406
7.226971665367472,-0.7752150596221337,3.1439682955842083
7.313238693862704,-0.7536267921389856,3.121280960944746
7.387181861144332,-0.7433233008402105,3.1106462728324984
7.472800265365163,-0.7340010944270329,3.087604448589295
7.54609480837239,-0.7236976031282577,3.064562624346091
7.632361836867622,-0.7021093356451097,3.041875289706629
7.7426279635156625,-0.6932777716747309,3.0195424446709085
7.852894090163703,-0.695730983888725,3.0209604030858745
8.011807037391762,-0.711922184501086,2.98657491152294
8.146720886467012,-0.7148660391578789,3.012807142199818
8.30563383369507,-0.741851373511814,3.050737529800169
8.46454678092313,-0.7693273503085478,3.0404573312916625
8.550165185143962,-0.7830653387069147,3.0656260931573156
8.611784491211985,-0.7600051438953703,3.0790966980994963
8.697402895432816,-0.7619677136665656,3.092212813437935
8.819344259020061,-0.7644209258805597,3.1060379079838576
8.941285622607307,-0.8139758126032404,3.1673646094311536
9.099549945560964,-0.8890441063514597,3.204586017824021
9.246139031575419,-0.9278048593325663,3.2542145623478445
9.380404256376268,-0.9655843274280754,3.3158957533988818
9.453050175109095,-1.0264239903351289,3.364106339507739
9.550992440543531,-1.0764695195006084,3.3889206117696506
9.611314498062754,-1.1142489875961175,3.3527626721880077
9.672933804130777,-1.115720914924514,3.365878787526447
9.696932902283585,-1.1284776184372831,3.3417734944720183
9.697581526557986,-1.0921700776701706,3.36658776673393
9.648934705977968,-1.031330414763117,3.3548896098104573
9.612611746611554,-0.9940415891104069,3.3548896098104573
9.552289689092332,-0.9086698040634124,3.3555985890179407
9.504291492786715,-0.8468488562707612,3.3804128612798525
9.504940117061114,-0.7982752544336782,3.4176342696727198
9.541911700701927,-0.7384168764122223,3.4555646572730705
9.640502590410765,-0.7030906205307074,3.5420601205860196
9.775416439486014,-0.6922964867891334,3.6409627200299246
9.958977109141282,-0.6824836379331569,3.740574298681313
10.154213015735754,-0.7330198095414353,3.8391224085214763
10.313125962963813,-0.7585332165669738,3.950077654492596
10.459715048978268,-0.7727618474081396,4.012113335147375
10.606304134992723,-0.7752150596221337,4.074857995009637
10.741217984067971,-0.8012191090904711,4.124486539533461
10.911806168235234,-0.8282044434444061,4.1868767097919815
11.05904387852409,-0.8419424318427731,4.261319526577717
11.217308201477747,-0.8924786034510513,4.3233552072324954
11.375572524431407,-0.9542995512437026,4.421194337865176
11.509837749232256,-1.040161978733496,4.494219196235945
11.582483667965082,-1.112286417824922,4.578587721926445
11.6298332399963,-1.2202277552406624,4.661892778805719
11.665507575088313,-1.29186155188929,4.733854168365263
11.688858048966722,-1.3865555433494618,4.841264518298966
11.700533285905927,-1.469964758625261,4.888411635596598
11.73620762099794,-1.5656400349710307,4.959664045948659
11.735558996723539,-1.624517128106889,5.007165652850033
11.783557193029157,-1.6730907299439721,5.05537623895889
11.832204013609175,-1.7089076282682858,5.103941314671489
11.92949765476921,-1.7589531574337653,5.128401097329658
12.039115157142852,-1.8335308087391857,5.140808233460614
12.111761075875679,-1.9071271751590086,5.140453743856873
12.209054717035714,-1.9458879281401154,5.129110076537142
12.294673121256546,-2.0081995183755654,5.092597647351758
12.367319039989372,-2.0705111086110155,5.068492354297329
12.41531723629499,-2.145088759916436,5.007165652850033
12.439316334447799,-2.21819448389346,4.9699442444571655
12.377048404105377,-2.338892524821969,4.882385312332992
12.27845751439654,-2.3619527196335137,4.795889849020043
12.14354366532129,-2.4090543941422005,4.6842256238414395
12.00862981624604,-2.431623946510946,4.597021181321007
11.849716869017982,-2.4291707342969517,4.534276521458745
11.690155297515522,-2.438983583152928,4.459479215069268
11.49427076664665,-2.4355490860533364,4.4084327121304785
11.237415553984155,-2.4433993651381174,4.31981031119508
10.968236480108056,-2.426226879640159,4.256002182521593
10.675058308079148,-2.336929955050774,4.192903033055589
10.370204899111034,-2.247633030461389,4.0932914544042
10.065351490142922,-2.0970058005221515,4.043308420276635
9.772821942388413,-1.970910692722855,4.005378032676285
9.554235561915533,-1.8227366749976117,3.9564584673599446
9.371972140809065,-1.6986041369695106,3.9440513312289887
9.250679401496221,-1.599985005966948,3.9199460381745603
9.153385760336185,-1.5499394768014685,3.9195915485708186
9.14106189912258,-1.5371827732886993,3.9436968416252474
9.214356442129807,-1.551411404129865,3.920300527778302
9.336297805717052,-1.5779060960410012,3.9337711327204823
9.556181434738733,-1.6426708984904452,3.9475962272664047
9.800712786187624,-1.6956602823127178,3.9741829475470243
10.0076239297213,-1.808508044156446,3.987299062885463
10.239182795682186,-1.9095803873730028,4.0128223143548585
10.421446216788654,-2.0337129254011037,4.025229450485814
10.591385776681516,-2.1455794023592345,4.025583940089556
10.675706932353547,-2.280015431686111,4.012467824751116
10.760028088025578,-2.4272081645257564,3.962484790623552
10.807377660056796,-2.572928970037006,3.9483052064738877
10.866402469027218,-2.767223377385338,3.897258703535098
10.90207680411923,-2.9011687642694155,3.8469211798037914
10.90077955557043,-3.0346235087106943,3.7962291664687435
10.862510723380817,-3.1420742036836358,3.769642446188124
10.837214376679206,-3.238730764915003,3.7189504328530756
10.811918029977598,-3.286813724309287,3.6934271813836808
10.811269405703198,-3.3716948669134825,3.643444147256116
10.773649197787984,-3.419777826307767,3.605868249259507
10.773649197787984,-3.4555947246320806,3.605159270052024
10.748352851086374,-3.5159437450963353,3.5675833720554144
10.699057406231956,-3.53900393990788,3.5665199032441897
10.57646741837031,-3.5728582684609984,3.53993318296357
10.441553569295062,-3.5694237713614068,3.5502133814720764
10.270316760853397,-3.565989274261815,3.535679307718671
10.111403813625339,-3.5262472363951107,3.5222087027764903
9.915519282756467,-3.5100560357827497,3.519727275550299
9.732607237375598,-3.457557294403276,3.505902181004377
9.537371330781127,-3.4055491954666013,3.4920770864584547
9.366134522339463,-3.354031738972725,3.466199345385318
9.183871101232995,-3.2666973841545355,3.4169252904652367
9.000959055852128,-3.1670969682663754,3.367651235545155
8.81869563474566,-3.067987194821014,3.3187316702288148
8.636432213639193,-2.957102002748481,3.2332996757270904
8.46584402947193,-2.834441392048776,3.148576660432849
8.295904469579067,-2.723556199976243,3.087604448589295
8.138288770899809,-2.576854109579396,3.0273412159532236
8.029319892800569,-2.47970690590523,2.955025336789938
7.920351014701328,-2.3938444784154367,2.9188673972082952
7.8230573735412925,-2.320738754438413,2.8582496749684827
7.688792148740443,-2.246161103132992,2.809330109652142
7.567499409427598,-2.172074094270371,2.760410544335802
7.433882808901148,-2.097987085407749,2.7235436255466765
7.27496986167309,-2.0229187916595297,2.6742695706265946
7.129029399933036,-1.9723826200512515,2.624995515706513
6.9701164527049775,-1.9095803873730028,2.587419617709904
6.799528268537714,-1.8345120936247834,2.538145562789822
6.628940084370451,-1.7717098609465347,2.476109882135043
6.506998720783206,-1.7334397504082268,2.426835827214961
6.397381218409565,-1.6716188026155756,2.389968908425835
6.324735299676739,-1.6348206194056643,2.353456479240451
6.2507921323951114,-1.6333486920772677,2.328287717374798
6.214469173028697,-1.608325927494528,2.352393010429226
6.190470074875889,-1.5955692239817587,2.3644456569564403
6.141174630021471,-1.5940972966533622,2.3637366777489572
6.128850768807866,-1.581340593140593,2.3878419708033856
6.116526907594261,-1.6294235525348773,2.3747258554649466
6.152849866960675,-1.6421802560476464,2.3871329915959025
6.177497589387884,-1.6421802560476464,2.4115927742540726
6.213820548754297,-1.6549369595604158,2.411947263857814
6.263115993608716,-1.6676936630731851,2.4367615361197257
6.299438952975129,-1.668184305515984,2.4491686722506816
6.348085773555147,-1.6932070700987236,2.4615758083816375
6.397381218409565,-1.6936977125415225,2.4863900806435493
6.458351900203188,-1.7304958957514338,2.5349551563561477
6.543321680149619,-1.7918262011012862,2.5594149390143177
6.640615321309656,-1.8418717302667658,2.5962818578034437
6.724936476981687,-1.9272435153137601,2.632085307781345
6.859201701782537,-2.0131059428035534,2.681004873097685
6.992818302308986,-2.111725073806116,2.7171628126793275
7.101787180408226,-2.197587501295909,2.7657278883919263
7.210756058507466,-2.3079820509256437,2.789478691842613
7.369669005735525,-2.358518222533922,2.8511598828936506
7.515609467475579,-2.444871292466514,2.8880268016827766
7.661549929215633,-2.519939586214733,2.9248937204719025
7.808139015230087,-2.5704757578230115,2.9745222649957257
7.9171078933293275,-2.6440721242428347,3.01103469418111
7.97742995084855,-2.729443909289829,3.034431008028055
8.037752008367772,-2.8148156943368234,3.034076518424314
8.08575020467339,-2.89920619449822,3.0695254787984734
8.207042943986234,-2.997334683057984,3.11773606490733
8.376982503879097,-3.1553215496392037,3.2262098836522584
8.595568884351978,-3.314289701106021,3.359497974659098
8.886801183557687,-3.52232209685272,3.5172458483241082
9.153385760336185,-3.7784374519937036,3.637417823992509
9.456293296481096,-4.047309510647456,3.78204958231908
9.710554012045991,-4.339241764112753,3.8891054426490417
9.915519282756467,-4.582109773298169,4.008568439109959
10.047838634734115,-4.823996497597986,4.0908100271780095
10.069243235789322,-5.064411294569408,4.123068581118495
10.079621224179727,-5.255761847260947,4.180495896924633
9.992705571410095,-5.386272737045433,4.164543864756261
9.82017151441963,-5.442205975524498,4.173406104849801
9.611963122337155,-5.4500562546092794,4.12200511230727
9.379107007827468,-5.45790653369406,4.070249630160997
9.122251795164972,-5.42895862956893,4.030546794541938
8.841397484349669,-5.399029440558202,3.9908439589228792
8.584542271687175,-5.333773995665959,3.9522045921150455
8.365307266939894,-5.244967713519373,3.938733987172865
8.170071360345421,-5.180202911069929,3.9493686752851125
8.035806135544572,-5.116910035948881,3.9607123426048436
7.914513396231726,-5.041351099757863,3.9844631460555306
7.854191338712504,-4.9427319687553,4.045789847502826
7.806193142406887,-4.86815431744988,4.107116548950122
7.807490390955687,-4.721942869495832,4.206728127601511
7.856785835810105,-4.649327787961607,4.317328883968888
7.980673072220551,-4.528629747033097,4.4906743001985285
8.164882366150218,-4.493303491151583,4.675717873351641
8.421088954538314,-4.5197981830627185,4.835947174242842
8.714267126567222,-4.583581700626565,5.008229121661258
8.946474616802508,-4.658649994374785,5.143289660686805
9.190357343976999,-4.710167450868661,5.254953885865408
9.410240972998679,-4.7621755498053355,5.305291409596714
9.606125503867553,-4.766100689347725,5.34428526600829
9.789686173522819,-4.78131060507449,5.394977279343338
9.924600022598069,-4.7729696835469095,5.360946277384145
10.023190912306907,-4.740096639879388,5.314508139293996
10.084161594100529,-4.730774433466211,5.254953885865408
10.170428622595761,-4.673369267658749,5.208870237379001
10.22037269172458,-4.603207398338518,5.16207760968511
10.30728834449421,-4.534026813903885,5.128401097329658
10.368907650562234,-4.474659078325227,5.1425806814793225
10.455174679057466,-4.452089525956482,5.168103932948717
10.540144459003898,-4.478093575424819,5.181220048287156
10.613439002011125,-4.527157819704701,5.2053253413415845
10.625114238950328,-4.574750136656187,5.2652340843739145
10.587494031035115,-4.633136587349246,5.312026712067805
10.489551765600678,-4.593885191925341,5.347830162045706
10.33063881837262,-4.577693991312979,5.370163007081427
10.123727674838943,-4.5006631277935645,5.392850341720888
9.903844045817262,-4.423141621831351,5.415183186756609
9.720932000436393,-4.333354054799168,5.474737440185197
9.587315399909945,-4.220506292955439,5.55981494508318
9.477697897536304,-4.180273612645936,5.643474491566196
9.392079493315473,-4.152306993406404,5.751948310311125
9.33046018724745,-4.185670679516723,5.822846231059444
9.269489505453828,-4.17046076378996,5.907214756749943
9.207221575111404,-4.21609051097025,5.965705541367306
9.133927032104177,-4.237678778453398,6.0008000121377245
9.06063248909695,-4.21167472898506,6.0245508155884115
8.999661807303328,-4.186651964402321,6.0117891898537135
8.95101498672331,-4.113055597982498,6.012498169061197
8.890692929204087,-4.052706577518244,5.96428758295234
8.805723149257656,-3.9923575570539884,5.8795645676580985
8.73307723052483,-3.9089483417781894,5.746985455858742
8.587785393059175,-3.8118011381040233,5.6133428752481604
8.467141278020732,-3.6675522599211705,5.481472742656288
8.297201718127868,-3.5100560357827497,5.336486494725975
8.164233741875819,-3.3775825762270686,5.191854736399404
8.092236447417392,-3.246090401556985,5.072037250334745
7.995591430531756,-3.1258830030712743,4.963917921193558
7.935917997286935,-3.0184323080983333,4.856153081656113
7.92424276034773,-2.947779796335303,4.760440888645882
7.974186829476548,-2.889883988085043,4.689542967897563
8.06045385797178,-2.820703403650409,4.655866455542112
8.1103979271006,-2.7745830140273204,4.6090738278482215
8.19666495559583,-2.72895326684703,4.574688336285287
8.258284261663853,-2.6950989382939117,4.53994835511861
8.258932885938254,-2.648487906228024,4.4559343190318526
8.234285163511045,-2.6254277114164792,4.383263950264825
8.210934689632635,-2.566059975837822,4.311657050309023
8.125964909686205,-2.493935536746396,4.2148813884875675
8.016347407312564,-2.4453619349093128,4.105344100931415
7.919053766152528,-2.385012914445058,4.020266596033432
7.7607894431988695,-2.2996411293980636,3.8866240154228504
7.639496703886024,-2.2142693443510693,3.8015465105248674
7.481232380932366,-2.151957754115619,3.7278126729466154
7.335291919192312,-2.0538292655558554,3.642735168048633
7.177027596238654,-1.9920083177632042,3.5448960374159526
7.055734856925809,-1.8830856954618664,3.460527511725453
6.946117354552168,-1.8099799714848426,3.37545000682747
6.861147574605737,-1.7731817882749312,3.3144777949839157
6.78850165587291,-1.6887912881135343,3.2304637588971574
6.752178696506497,-1.6289329100920784,3.170555015864828
6.691856638987274,-1.581340593140593,3.0858320005705866
6.630885957193652,-1.5332576337463086,3.0011089852763453
6.619210720254448,-1.4984220203075926,2.9167404595858457
6.583536385162434,-1.426788223658965,2.844779070026302
6.584185009436834,-1.4042186712902194,2.772817680466758
6.5725097724976305,-1.3576076392243317,2.68880364438
6.6218052173520485,-1.3114872496012426,2.6416565270823678
6.634129078565653,-1.2771422786053253,2.5700496271265654
6.6840731476944715,-1.2192464703550647,2.523256999432675
6.721693355609685,-1.1731260807319757,2.4640572356078287
6.7956365228913125,-1.115720914924514,2.4176190975176794
6.86957969017294,-1.0823572288141943,2.3587738232965747
6.931198996240963,-1.0362368391911052,2.32438833173364
7.00514216352259,-1.0028731530807855,2.2775957040397494
7.1037330532314265,-0.9690188245276671,2.267315505531243
7.201675318665862,-0.9724533216272588,2.208115741706397
7.287942347161095,-0.9390896355169391,2.1857828966706765
7.422207571961945,-0.9307487139893592,2.1513974051077414
7.557770045311594,-0.90965108894901,2.165931478861147
7.668036171959636,-0.888062821465862,2.155651280352641
7.778302298607676,-0.8910066761226549,2.1450165922403928
7.900892286469321,-0.8939505307794479,2.146789040259101
7.998185927629358,-0.9199545802477852,2.1478525090703258
8.132451152430207,-0.9587153332288919,2.173021270935979
8.218069556651038,-0.9847193826972294,2.173730250143462
8.291364099658265,-1.0102327897227679,2.1864918758781595
8.32768705902468,-1.034764911862709,2.1864918758781595
8.400981602031907,-1.0244614205639337,2.187909834293126
8.461952283825529,-1.0499748275894722,2.1882643238968673
8.535246826832756,-1.0872636532421824,2.2127241065550374
8.6578368146944,-1.101492284083348,2.250654494155388
8.803777276434456,-1.1765605778315675,2.2754687664173
8.97436546060172,-1.2280780343254434,2.3009920178866947
9.16960136719619,-1.2795954908193194,2.3513295416180013
9.401808857431476,-1.3203188135716213,2.377916261898621
9.646340208880368,-1.386064900906663,2.3924503356520264
9.866223837902048,-1.4385636422861368,2.40662991980169
10.098431328137334,-1.4802682499240363,2.4091113470278813
10.281991997792602,-1.5087255116063678,2.386778501992161
10.416257222593451,-1.5239354273331311,2.3764983034836544
10.489551765600678,-1.5386547006170956,2.341049343109495
10.514848112302287,-1.5160851482483502,2.2811406000771655
10.503172875363084,-1.4199192294597816,2.258453265437703
10.442850817843862,-1.3718362700654974,2.2102426793288465
10.370204899111034,-1.2746890663913313,2.1744392293509454
10.298207604652609,-1.153500383020023,2.139344758580527
10.25020940834699,-1.0445777607186852,2.1042502878101095
10.239182795682186,-0.9724533216272588,2.09326111009412
10.264479142383795,-0.8650026266543175,2.095742537320311
10.350746170879027,-0.8066161759612581,2.097869474942761
10.449337060587863,-0.7604957863381692,2.1244561952233805
10.560251811510305,-0.7025999780879085,2.151042915504
10.720462007287164,-0.6456854547232456,2.1666404580686303
10.855375856362414,-0.5760142278458132,2.205988804083947
11.040233774566483,-0.4950582247840082,2.258453265437703
11.19979534606894,-0.4616945386736885,2.3219069045074487
11.310061472716981,-0.43912498630494284,2.3722444282387554
11.433300084853027,-0.3934952391246527,2.398831148519375
11.506594627860254,-0.36994440187030936,2.44881418264694
11.60518551756909,-0.3473748495015637,2.4987972167745047
11.715451644217131,-0.3130298785056464,2.537436583582339
11.825717770865172,-0.2904603261369007,2.5998267538408597
11.959982995666023,-0.3159737331624393,2.685967727550067
12.106572081680476,-0.3650379774423212,2.796213994313703
12.264836404634135,-0.43912498630494284,2.881645988815428
12.422452103313393,-0.5612949545618487,2.966369004109669
12.567743940779048,-0.7070157600730979,3.062790176327383
12.676712818878288,-0.8527365655843471,3.1340425866794437
12.785033072703127,-0.9979667286527975,3.1935968401080315
12.906325812015972,-1.1078706358397328,3.265912719271317
13.015294690115212,-1.229059319211041,3.349926755358075
13.14826266636726,-1.3384725839551777,3.4225971241251023
13.268906781405706,-1.4964594505363973,3.4817968879499483
13.41419861887136,-1.6912445003275285,3.5289440052475807
13.49787115026899,-1.8364746633959788,3.5757366329414713
13.557544583513813,-2.0180123672315418,3.57325520571528
13.604894155545031,-2.151957754115619,3.559430111169358
13.60359690699623,-2.2481236729041876,3.5456050166234356
13.627596005149039,-2.2976785596268683,3.5087380978343097
13.614623519661034,-2.382559702231064,3.446347927575789
13.540680352379407,-2.417885958112579,3.38431224692101
13.405766503304157,-2.4414367953669225,3.260949864818935
13.234529694862493,-2.4399648680385257,3.125534836189645
13.100913094336043,-2.390900623758644,3.0156430590297507
13.003619453176007,-2.31779489978162,2.9429726902627236
12.942648771382386,-2.2927721351988803,2.918158418000812
12.857030367161554,-2.2917908503132827,2.8809370096079445
12.7091440325983,-2.3487053736779457,2.865693956647056
12.451640195661405,-2.3791252051314724,2.8373347883477282
12.109166578778078,-2.37176556848949,2.8206737769718733
11.694047043161923,-2.242235963590602,2.805076234407243
11.304223854247379,-2.0778707452529974,2.7660823779956676
10.92672452654644,-1.8649319250783103,2.752611773053487
10.634843603066333,-1.653955674674818,2.7522572834497456
10.44025632074626,-1.5165757906911488,2.8004678695586023
10.306639720219811,-1.440526212057332,2.8362713195365035
10.208697454785375,-1.4135408777033969,2.8837729264378775
10.147726772991753,-1.411087665489403,2.931274533339251
10.147078148717352,-1.4576986975552906,3.015288569426009
10.19572496929737,-1.5052910145067762,3.087604448589295
10.268370888030196,-1.5783967384838,3.1358150346981515
10.376691141855037,-1.7241175439950491,3.182962151995784
10.509659118107086,-1.882104410576269,3.254569051951586
10.630303233145531,-2.0400912771574884,3.30207065885296
10.762622585123179,-2.235366969391418,3.3002982108342516
10.833971255307207,-2.4291707342969517,3.309869430135275
10.930616272192841,-2.58764824332097,3.3084514717203084
10.989641081163263,-2.7461257523449887,3.258113947989002
11.037639277468882,-2.880561781671865,3.2077764242576956
11.048017265859285,-3.038058005810286,3.1446772747916913
11.083691600951298,-3.1724940351371624,3.0822871045331706
11.082394352402497,-3.2936827185084705,3.0195424446709085
11.105744826280906,-3.379545145998264,2.9578612536198707
11.14141916137292,-3.465898215930856,2.884127416041619
11.214065080105746,-3.5399852247934778,2.8596676333834488
11.286710998838574,-3.6268289371688684,2.822800714594323
11.3593569175714,-3.7131820071014605,2.7979864423324114
11.407355113877017,-3.8108198532184256,2.772817680466758
11.419030350816222,-3.882944292309852,2.7838068581827473
11.417733102267421,-3.990885629725592,2.781679920560298
11.367789033138603,-4.062028783931421,2.7795529829378482
11.256874282216163,-4.119433949738883,2.7891242022388716
11.145959531293721,-4.1645730544763735,2.799049911143636
10.974722722852057,-4.196464813258297,2.8082666408409174
10.754190469555976,-4.19106774638751,2.829181527461672
10.5459820774735,-4.1621198422623795,2.8511598828936506
10.289126864811005,-4.143475429436025,2.8720747695144047
9.983624831568491,-4.088032833399758,2.8929896561351587
9.702770520753187,-3.997263981481977,2.9029153650399233
9.38494462629707,-3.9300459668185383,2.899724958606249
9.104738939756167,-3.803950859019242,2.873847217533113
8.836857114428868,-3.666080332592774,2.8362713195365035
8.592974387254378,-3.5650079893762174,2.7983409319361527
8.325092561927079,-3.4394035240197196,2.7724631908630166
8.081858459026988,-3.303004924921648,2.6990838428885064
7.837975731852498,-3.178381744450748,2.6374026518374687
7.631713212593222,-3.0424737877954753,2.5884830865211286
7.473448889639563,-2.9320792381657412,2.5154582281503597
7.340480913387514,-2.8094186274660364,2.4676021316452443
7.182216590433856,-2.6990240778363024,2.394577273274476
7.036276128693801,-2.6004049468337396,2.3580648440890917
6.890984291228148,-2.502276458273976,2.2853944753220645
6.806014511281717,-2.4291707342969517,2.224776753082252
6.7333685925488895,-2.3560650103199277,2.188973303104351
6.684721771968872,-2.295715989855673,2.1652224996536638
6.660722673816063,-2.2952253474128743,2.140408227391752
6.685370396243272,-2.2598990915313593,2.1535243427301913
6.686019020517672,-2.2240821932070456,2.130128028883246
6.686019020517672,-2.212306774579874,2.130128028883246
6.722990604158486,-2.1647144576283885,2.1435986338254263
6.746989702311295,-2.1887559373255305,2.155651280352641
6.73531446537209,-2.175999233812761,2.2042163560652392
6.746989702311295,-2.223100908321448,2.2520724525703546
6.73401721682329,-2.258427164202963,2.287521412944514
6.7333685925488895,-2.3295703184087917,2.322615883714932
6.721044731335285,-2.352630513220336,2.3580648440890917
6.70807224584728,-2.4007134726146204,2.3449487287506527
6.70742362157288,-2.4360397284961355,2.3807521787285535
6.683424523420071,-2.4355490860533364,2.3924503356520264
6.682775899145671,-2.47136598437765,2.4037940029717575
6.695099760359276,-2.458609280864881,2.4406609217608835
6.719098858512084,-2.507182882701964,2.452004589080614
6.780069540305707,-2.508164167587562,2.4771733509462677
6.853364083312934,-2.5572284118674435,2.513685780131652
6.938333863259365,-2.6062926561473256,2.550198209317036
6.974008198351378,-2.691173798751521,2.5611873870330255
7.046654117084206,-2.7525041041013734,2.5856471696911956
7.131623897030637,-2.8378758891483677,2.6214506196690968
7.2159450527026685,-2.9472891538925046,2.656899580043256
7.337237792015513,-3.0562117761938423,2.7657278883919263
7.470205768267562,-3.2264647038450325,2.812875005689558
7.603822368794011,-3.336368611031968,2.897243531380058
7.749114206259665,-3.482089416543217,2.9816120570705578
7.808787639504487,-3.5905213964017557,3.0408118208954042
7.86910969702371,-3.687177957633123,3.1007205639277338
7.880136309688513,-3.7946286526060646,3.1471587020178826
7.928134505994131,-3.8795097952102604,3.170555015864828
7.9391611186589355,-3.9751850715560297,3.2052949970315043
7.9748354537509485,-4.058594286831829,3.2769018969873063
8.05915660942298,-4.190577103944712,3.3846667365247516
8.155153002034215,-4.322559921057594,3.5289440052475807
8.263473255859056,-4.490850278937589,3.6604596482357126
8.359469648470292,-4.682200831629128,3.803673448147317
8.46778990229513,-4.862266608136294,3.9592943841898776
8.550813809418361,-5.065392579455005,4.113851851421213
8.59751475717518,-5.243986428633775,4.26876380825629
8.620216606779188,-5.423070920255344,4.350650906720598
8.642918456383196,-5.578113932179771,4.444945141315863
8.616973485407186,-5.720890883034227,4.490319810594787
8.554056930790363,-5.838645069305944,4.5477471264009255
8.49243762472234,-5.872990040301861,4.546329167985959
8.345199914433486,-5.929904563666524,4.543138761552285
8.210286065358236,-5.939226770079702,4.529313667006362
8.013752910214963,-5.959343110234453,4.50201796751826
7.8185170036204905,-5.91911042992495,4.463378600710426
7.623281097026019,-5.855326912361104,4.437855349241031
7.452692912858756,-5.791052752354458,4.436437390826065
7.3314001735459104,-5.691942978909097,4.460897173484234
7.295725838453897,-5.583020356607759,4.462315131899201
7.24772764214828,-5.484401225605197,4.536048969477453
7.236701029483476,-5.362721899791089,4.598439139735974
7.250322139245881,-5.2052256756526685,4.661892778805719
7.288590971435495,-5.072261573654188,4.761858847060849
7.424153444785145,-5.0011184194483596,4.861824915315979
7.620037975654018,-4.967264090895242,4.986250766229279
7.865217951377308,-4.958923169367662,5.110676617142579
8.121424539765403,-5.010931268304336,5.1982355492667525
8.341956793061485,-5.038897887543869,5.273387345259971
8.513193601503147,-5.053617160827834,5.3237248689912775
8.659782687517602,-5.081093137624568,5.313444670482771
8.86799107960008,-5.049692021285443,5.329042213047401
9.051551749255347,-5.066373864340603,5.319116504142637
9.223437181971411,-5.0467481666286504,5.285439991787185
9.38364737774827,-4.979039509522413,5.252826948242959
9.469914406243502,-4.92212498615775,5.194336163625596
9.532182336585924,-4.816146218513206,5.148961494346671
9.594450266928348,-4.709676808425861,5.139390275045648
9.608071376690752,-4.601735471010121,5.141517212668098
9.608720000965153,-4.577693991312979,5.141871702271839
9.645691584605967,-4.541877092988665,5.15534230721402
9.669690682758775,-4.566409215128607,5.179447600268448
9.694338405185984,-4.577693991312979,5.228012675981047
9.718337503338793,-4.576712706427382,5.31309018087903
9.68201454397238,-4.526176534819103,5.398167685777013
9.597044764025949,-4.486925139395198,5.470129075336557
9.450455678011494,-4.458467877712867,5.5172761926341884
9.303866591997041,-4.370152238009079,5.565132289139304
9.109279309676968,-4.293121374489664,5.587819623778766
8.914043403082497,-4.192049031273108,5.6232685841529255
8.755779080128837,-4.0792012694293796,5.671479170261782
8.670809300182405,-4.0276838129355035,5.743795049425068
8.598163381449579,-3.963900295371657,5.852977847377479
8.57351565902237,-3.9624283680432604,5.913241080013551
8.536544075381556,-3.972241216899237,5.985202469573094
8.498923867466342,-4.018852248965125,6.007889804212557
8.450925671160725,-3.9570313011724734,6.044756723001682
8.377631128153498,-3.906985772006994,6.056809369528897
8.30563383369507,-3.809347925890029,6.045111212605423
8.24596040045025,-3.676383823891549,6.022778367569703
8.173314481717423,-3.5797272626601817,5.95081697801016
8.089641950319791,-3.4237029658501577,5.8434066280764565
8.017644655861364,-3.303495567364447,5.747694435066226
7.945647361402938,-3.1479619129972214,5.628585928209049
7.837327107578098,-3.0159790958843393,5.496361306013434
7.7290068537532575,-2.835913319377173,5.352793016498088
7.633010461142022,-2.6681136039399767,5.197172080455528
7.512366346103578,-2.5356401443842955,5.0645929686561715
7.415721329217942,-2.3918819086442418,4.932722836064298
7.380046994125929,-2.2966972747412706,4.837365132657808
7.3813442426747295,-2.2383108240482112,4.753705586174792
7.405991965101938,-2.1809056582407496,4.645940746637347
7.4436121730171525,-2.12251920754769,4.599148118943456
7.480583756657966,-2.088174236551773,4.5520010016458246
7.530527825786784,-2.0543199079986545,4.492801237820978
7.5551755482139935,-2.0081995183755654,4.421194337865176
7.568148033701998,-1.9620791287524764,4.33753479138216
7.568796657976399,-1.8914266169894465,4.254229734502885
7.54544618409799,-1.8448155849235586,4.145755915757957
7.4974479877923725,-1.7373648899506173,4.062450858878681
7.448801167212355,-1.6902632154419308,3.953622550530012
7.376803872753928,-1.6063633577233327,3.857201378312298
7.32880567644831,-1.5101974389347643,3.785594478356496
7.268483618929087,-1.4140315201461957,3.7139875784006935
7.195837700196261,-1.3659485607519115,3.6413172096336663
7.160163365104247,-1.294314764103284,3.5693558200741227
7.160811989378648,-1.2231716098974552,3.510156056249276
7.149136752439444,-1.164294516761597,3.450601802820688
7.137461515500239,-1.10492678118294,3.3910475493921
7.138758764049039,-1.0337836269771112,3.343900432094468
7.151082625262644,-0.9866819524684246,3.3084514717203084
7.164055110750649,-0.9273142168897676,3.2857641370808466
7.177027596238654,-0.8802125423810809,3.2382625301794725
7.213999179879467,-0.8453769289423648,3.2393259989906973
7.263294624733885,-0.823298019016418,3.1921788816930654
7.337237792015513,-0.7766869869505302,3.2060039762389874
7.41118095929714,-0.7786495567217254,3.195014798522998
7.485124126578768,-0.7320385246558376,3.1967872465417058
7.570742530799599,-0.7094689722870919,3.2226649876148423
7.632361836867622,-0.6991654809883168,3.211675809898853
7.693981142935645,-0.6765959286195711,3.2127392787100777
7.7426279635156625,-0.6530450913652278,3.2258553940485166
7.840570228950099,-0.6554983035792219,3.215220705936269
7.877541812590913,-0.6564795884648196,3.2155751955400107
7.963160216811745,-0.6584421582360148,3.229045800482191
8.024130898605367,-0.6834649228187546,3.2294002900859327
8.048778621032577,-0.6844462077043522,3.2177021331624602
8.098074065886994,-0.6491199518228372,3.231172738104641
8.1103979271006,-0.649610594265636,3.231172738104641
8.159044747680618,-0.6505918791512337,3.231881717312124
8.244663151901449,-0.6648205099923995,3.2208925395961345
8.367253139763093,-0.6790491408335652,3.2584684375927435
8.489194503350339,-0.7413607310690152,3.2953353563818695
8.672106548731206,-0.8046536061900629,3.3453183905094344
8.855018594112074,-0.8439050016139683,3.383248778109785
9.025606778279338,-0.9194639378049864,3.420824676106394
9.22084268487381,-0.9950228739960045,3.4704532206302177
9.391430869041072,-1.0823572288141943,3.519727275550299
9.562019053208335,-1.169691583632384,3.5569486839431668
9.719634751887593,-1.2805767757049171,3.593461113128551
9.853899976688444,-1.342888365940367,3.630328031917677
9.975192716001288,-1.4174660172457876,3.667194950706803
10.06081112022212,-1.4670209039684683,3.679602086837759
10.08481021837493,-1.4915530261084091,3.679247597234017
10.071837732886925,-1.5278605668755216,3.6544333249721053
10.047838634734115,-1.5038190871783796,3.630328031917677
10.010867051093301,-1.5155945058055513,3.605159270052024
9.974544091726887,-1.502837802292782,3.592752133921068
9.938221132360475,-1.4905717412228114,3.568292351262898
9.888925687506056,-1.4655489766400718,3.5562397047356837
9.852602728139644,-1.4410168545001307,3.543832568604728
9.779956809406816,-1.39146196777745,3.519727275550299
9.670339307033176,-1.3301316624275978,3.470807710233959
9.524398845293122,-1.2187558279122659,3.446347927575789
9.403754730254677,-1.09658585965536,3.4105444775978877
9.294785852155437,-0.9739252489556554,3.399200810278157
9.22278855769701,-0.8159383823744356,3.4133803944278207
9.22408580624581,-0.6834649228187546,3.427914468181226
9.237706916008216,-0.5514821057058723,3.4424485419346316
9.312947331838643,-0.4199899310357889,3.48215137755369
9.375863886455466,-0.28898839880850424,3.4973944305145785
9.4627795392251,-0.15896815146681728,3.5009393265519946
9.476400648987504,-0.05151745649387597,3.478960971120016
9.538668579329928,0.0549519535934677,3.45769159489552
9.60093650967235,0.16093072123801255,3.4240150825400684
9.773470566662814,0.2291300207870484,3.4275599785774844
9.981678958745292,0.24875571849900113,3.4552101676693288
10.238534171407785,0.2198078143738708,3.482505867157432
10.507713245283885,0.17810320673597121,3.533906859699963
10.739272111244771,0.1020536281021543,3.5842443834312694
10.934508017839242,0.05004552916547952,3.6342274175588347
11.068124618365692,-0.03630754076711259,3.6710943363479602
11.177742120739333,-0.07359636641982283,3.7324210377952562
11.287359623112973,-0.14768337528244446,3.768933466980641
11.420327599365022,-0.28113811972372316,3.8529475030673987
11.590267159257886,-0.4518816898177121,3.936961539154157
11.747234233662743,-0.6456854547232456,4.032673732164388
11.879553585640393,-0.839489219628779,4.127676945967135
12.011872937618042,-1.0578251066742532,4.186167730584498
12.058573885374859,-1.261441720435763,4.280107475576021
12.080627110704468,-1.4527922731273024,4.337180301778418
12.079329862155666,-1.5720183867274153,4.395671086395781
12.054033515454057,-1.6672030206303863,4.41764944182776
12.06506012811886,-1.7746537156033275,4.464442069521651
12.06376287957006,-1.8580629308791268,4.499182050688327
12.111112451601278,-2.0150685125747487,4.5211604061203055
12.183758370334106,-2.1244817773188855,4.532504073440037
12.279754762945341,-2.2589178066457616,4.531440604628812
12.377048404105377,-2.3457615190211527,4.519033468497856
12.486017282204617,-2.444380650023715,4.5066263323669
12.595634784578257,-2.507673525144763,4.470822882388999
12.681253188799088,-2.546924920568668,4.410914139356669
12.692928425738293,-2.62101192943129,4.336825812174676
12.643632980883876,-2.6573194701984026,4.238986681541996
12.545042091175038,-2.669585531268373,4.128385925174618
12.435424588801398,-2.6686042463827753,4.042244951465411
12.312834600939754,-2.6553569004272073,3.9557494881524615
12.177920751864503,-2.6897018714231247,3.893004828290199
12.030683041575648,-2.7117807813490713,3.7937477392425523
11.834798510706776,-2.7201217028766513,3.7664520397544496
11.590267159257886,-2.715705920891462,3.690591264553748
11.3580596690226,-2.6514317608848166,3.6278466046914857
11.0895292194209,-2.5989330195053433,3.552340319094526
10.832674006758406,-2.5572284118674435,3.5253991092101646
10.551819695943102,-2.4679314872780584,3.4626544493479026
10.295613107555006,-2.3668591440615017,3.424724061747552
10.101025825234935,-2.2790341468005133,3.3750955172237282
9.930437641067671,-2.178943088469554,3.374386538016245
9.857143098060444,-2.141163620374045,3.3740320484125035
9.845467861121241,-2.1161408557913055,3.4105444775978877
9.906438542914863,-2.165205100071187,3.4346497706523165
10.015407421014103,-2.250576885118182,3.495267492892129
10.136700160326948,-2.3727468533750877,3.555176235924459
10.293667234731807,-2.5194489437719345,3.61543946856053
10.414311349770252,-2.6892112289803256,3.6746392323853763
10.497983881167881,-2.8717302177014865,3.6604596482357126
10.533009591985495,-3.04051121802428,3.6700308675367355
10.544036204650299,-3.1847600962071327,3.6675494403105446
10.567386678528708,-3.257865820184157,3.642380678444891
10.590737152407115,-3.3913205646254356,3.6157939581642715
10.60176376507192,-3.5129998904395427,3.5534037879057507
10.60046651652312,-3.634188573810851,3.490659128043488
10.586845406760714,-3.719560358857845,3.404163664730539
10.561549060059106,-3.8054227863476386,3.2935629083631617
10.523928852143891,-3.8903039289518344,3.1946603089192562
10.523928852143891,-3.9403494581173137,3.096821178286576
10.5479279502967,-3.9658628651428525,3.0482561025739776
10.535604089083096,-4.014927109422734,2.9869294011266816
10.510956366655886,-4.015417751865533,2.9259571892831273
10.449337060587863,-4.063010068817018,2.8756196655518207
10.351394795153427,-4.074294845001392,2.801531338369827
10.25280390544459,-4.085088978742966,2.751548304242262
10.14318640307095,-4.08312640897177,2.7260250527728673
10.0082725539957,-4.0684071356878055,2.700147311699731
9.874007329194852,-4.053687862403841,2.686322217153809
9.727418243180397,-4.026211885607107,2.672851612211628
9.580180532891543,-4.010511327437545,2.6831318107201345
9.40959234872428,-3.9467278098736984,2.693766498832382
9.238355540282615,-3.9064951295641954,2.692348540417416
9.080091217328958,-3.8427116120003486,2.7033377181334055
8.934150755588904,-3.7671526758093306,2.702628738925922
8.78756166957445,-3.7038598006882832,2.689512623587483
8.641621207834396,-3.628791506940064,2.676750997852786
8.495680746094342,-3.541457152121874,2.676396508249044
8.349740284354287,-3.4423473786765126,2.63988407906366
8.155153002034215,-3.3427469627883526,2.5902555345398364
7.972240956653348,-3.2313711282730204,2.5413359692234962
7.839272980401298,-3.121467221086085,2.481072736587425
7.717980241088454,-3.011072671456351,2.4328621504785684
7.633010461142022,-2.9257008864093565,2.4091113470278813
7.535716819981986,-2.840329101362362,2.34884811439181
7.46371952552356,-2.7554479587581664,2.300637528282953
7.3541020231499195,-2.669585531268373,2.2524269421740963
7.232809283837074,-2.6082552259185205,2.179047594199586
7.123191781463434,-2.534658859498698,2.1304825184869873
7.025898140303398,-2.4615531355216738,2.069864796247175
6.941576984631367,-2.3761813504746794,2.0220086997420594
6.84363471919693,-2.3266264637519987,1.9851417809529335
6.783312661677708,-2.2657868008449453,1.9489838413712908
6.746989702311295,-2.2172131990078623,1.9252330379206037
6.710666742944881,-2.1926810768679212,1.9252330379206037
6.73531446537209,-2.1686395971707793,1.9500473101825155
6.710666742944881,-2.1676583122851816,1.9741526032369439
6.711315367219282,-2.155392251215211,1.9865597393678998
6.722990604158486,-2.178943088469554,2.0103105428185866
6.686019020517672,-2.1902278646539273,2.0096015636111035
6.686019020517672,-2.202003283281099,2.033706856665532
6.661371298090463,-2.2015126408383,2.0333523670617906
6.673695159304067,-2.2015126408383,2.0333523670617906
6.649047436876859,-2.200531355952702,2.057457660116219
6.686019020517672,-2.2015126408383,2.0578121497199606
6.722341979884086,-2.2265354054210396,2.0578121497199606
6.746989702311295,-2.2383108240482112,2.0822719323781307
6.807960384104917,-2.263333588630951,2.118784361563515
6.892930164051348,-2.3001317718408627,2.1680584164835968
6.97789994399778,-2.3487053736779457,2.2407287852506235
7.0998413075850255,-2.4105263214705968,2.3020554866979195
7.2334579081114745,-2.4841226878904195,2.3871329915959025
7.391722231065133,-2.594517237520154,2.460157849966671
7.610957235812414,-2.6823422347811423,2.546298823675879
7.780896795705277,-2.804512203038048,2.63102183897012
7.914513396231726,-2.913925467782185,2.7277975007915756
7.998834551903758,-3.0586649884078363,2.8111025576708504
8.05850798514858,-3.1670969682663754,2.870656811099438
8.14347776509501,-3.251487468427772,2.9429726902627236
8.251798018919851,-3.3721855093562816,3.05109201940391
8.385414619446301,-3.482089416543217,3.1234078985671956
8.555354179339163,-3.6052406696857204,3.1843801104107503
8.76226532287284,-3.753414687410964,3.2208925395961345
8.968527842132117,-3.9006074202506094,3.305615554890376
9.1994380838186,-4.085579621185764,3.3541806306029742
9.478995146085104,-4.27006117967812,3.4637179181591273
9.721580624710795,-4.453561453284879,3.584598873035011
9.92784314397007,-4.612529604751695,3.6937816709874225
10.097134079588534,-4.783273174845684,3.765388570943225
10.193779096474168,-4.951563532725679,3.872798920876928
10.240480044230987,-5.107587829535704,3.95539499854872
10.22685893446858,-5.225832658250219,4.03763658661677
10.127619420485345,-5.329848856123569,4.1312218420045514
10.028379906502108,-5.45790653369406,4.22445260778859
9.892817433152459,-5.53689996698467,4.330090509703586
9.756606335528408,-5.62815946134525,4.4112686289604115
9.621043862178757,-5.695377476008688,4.528959177402621
9.43683456824909,-5.749348144716558,4.622189943186661
9.25262527431942,-5.792034037240056,4.679617258992799
8.958798478016112,-5.747385574945364,4.760795378249624
8.690268028414414,-5.692433621351896,4.818577183659504
8.348443035805486,-5.59921155722012,4.876004499465643
8.079263961929387,-5.531993542556682,4.92208814795205
7.810733512327688,-5.439752763310504,5.016736872151056
7.603822368794011,-5.325433074138379,5.100396418634072
7.433234184626748,-5.247911568176166,5.172003318589875
7.2872937228866945,-5.135063806332438,5.256726333884116
7.190648706001059,-5.010931268304336,5.342512817989582
7.16729823212265,-4.876004596534661,5.453468063960702
7.2295661624650736,-4.7911234539304655,5.5647777995355625
7.339832289113114,-4.768063259118921,5.6636803989794675
7.523392958768381,-4.806824012100027,5.738123215765202
7.730952726576459,-4.858832111036702,5.7764080929692945
8.035806135544572,-4.949600962954484,5.7909421667227
8.32898430757348,-5.028103753802295,5.805830730079847
8.634486340815993,-5.071280288768591,5.821428272644477
8.9276645128449,-5.150764364502,5.775699113761811
9.22084268487381,-5.230248440235409,5.729969954879146
9.429051076956286,-5.273424975201705,5.6232685841529255
9.587964024184345,-5.278822042072491,5.516567213426705
9.710554012045991,-5.284219108943279,5.3850515704385735
9.809793526029226,-5.217491736722639,5.230139613603496
9.89670917879886,-5.12574159991926,5.100041929030331
9.970652346080486,-5.069317718997396,4.992986068700369
10.020596415209305,-4.987871073492792,4.910389991028578
10.045244137636514,-4.953035460054076,4.887348166785373
10.045892761910915,-4.928503337914135,4.923860595970758
10.070540484338123,-4.916237276844164,4.948674868232669
10.082215721277327,-4.928503337914135,4.960727514759884
10.082215721277327,-4.915255991958567,5.009647080076224
10.021893663758105,-4.876985881420259,5.069910312712295
9.936275259537274,-4.837243843553554,5.153924348799054
9.802010034736425,-4.77247904110411,5.249991031413026
9.631421850569161,-4.694466892699098,5.346057714026998
9.460833666401898,-4.592413264596944,5.454531532771926
9.326568441601049,-4.539423880774671,5.550243725782157
9.204627078013804,-4.486434496952399,5.658363054923344
9.106684812579367,-4.470243296340038,5.754075247933574
9.069713228938554,-4.490850278937589,5.886299870129189
9.05738936772495,-4.513419831306334,5.946208613161518
9.068415980389753,-4.584562985512163,6.005762866590107
9.019120535535334,-4.631174017578051,6.040502847756783
8.945177368253708,-4.641477508876826,6.039439378945558
8.811560767727258,-4.590941337268547,6.001863480948949
8.604000999919181,-4.515382401077529,5.927775153766956
8.40941371759911,-4.4285386887021385,5.829936023134276
8.177854851638223,-4.281345955862493,5.720398735578122
7.996240054806156,-4.135625150351244,5.587465134175025
7.899595037920521,-3.990885629725592,5.4797002946375795
7.839921604675699,-3.8598840974983073,5.360237298176662
7.829543616285295,-3.7293732077138215,5.253535927450441
7.830840864834095,-3.611619021442105,5.122374774066051
7.856785835810105,-3.4948461200559864,4.979515463758188
7.87105556984691,-3.35206916920153,4.92208814795205
7.908675777762125,-3.270131881254127,4.851190227203731
7.933972124463733,-3.1764191746795527,4.756541503004725
7.92294551179893,-3.081725183219381,4.661183799598236
7.92359413607333,-3.035114151153493,4.5895768996424335
7.936566621561335,-2.9767277004604336,4.505917353159417
7.92489138462213,-2.9065658311402025,4.386099867094758
7.913864771957326,-2.8604454415171134,4.277980537953572
7.877541812590913,-2.8015683483812555,4.181559365735858
7.8418674774989,-2.6950989382939117,4.03763658661677
7.793869281193282,-2.648487906228024,3.904702985213672
7.721871986734855,-2.5169957315579405,3.785239988752754
7.661549929215633,-2.445852577352112,3.6647135234806116
7.588904010482806,-2.3619527196335137,3.568292351262898
7.49225899359717,-2.2652961584021463,3.4718711790451837
7.419613074864343,-2.1809056582407496,3.3995552998818983
7.346967156131517,-2.109271861592122,3.2910814811369704
7.262646000459485,-2.000349239290784,3.231527227708382
7.166000983573849,-1.9159587391293873,3.1106462728324984
7.105678926054627,-1.8080174017136472,3.039039372876696
7.009033909168991,-1.7226456166666528,2.9787761402406248
6.912388892283356,-1.6132323519225162,2.9188673972082952
6.839742973550529,-1.540617270388291,2.870656811099438
6.779420916031307,-1.4439607091569238,2.8352078507252787
6.7554218178784975,-1.3953871073198407,2.8235096938018063
6.743097956664894,-1.3713456276226985,2.8118115368783334
6.731422719725689,-1.3595702089955268,2.787706243823905
6.743746580939294,-1.324243953114012,2.76430992997696
6.7690429276409025,-1.288917697232497,2.7533207522609704
6.8183383724953215,-1.253591441350982,2.7664368675994093
6.855309956136135,-1.2177745430266682,2.791960119068804
6.916929262204158,-1.207471051727893,2.793023587880029
6.97789994399778,-1.196676917986319,2.7940870566912537
7.027195388852198,-1.1736167231747745,2.7951505255024784
7.088814694920221,-1.1638038743187982,2.7600560547320607
7.149785376713844,-1.153500383020023,2.7487123874123296
7.212053307056267,-1.107379993396934,2.726379542376609
7.285996474337894,-1.061259603773845,2.7040466973408885
7.359291017345121,-1.039671336290697,2.668952226570471
7.4209103234131435,-1.029367844991922,2.645910402327267
7.507177351908376,-0.9955135164388034,2.635630203818761
7.556472796762794,-0.9852100251400281,2.6122338899718156
7.593444380403608,-0.9621498303284837,2.5891920657286116
7.679062784624439,-0.9636217576568801,2.614360827594265
7.740033466418062,-0.9768691036124482,2.6391750998561765
7.8010041482116845,-1.001891868195188,2.6515822359871324
7.861974830005307,-1.0391806938478982,2.6760420186453024
7.935269373012534,-1.0519373973606674,2.71326342703817
8.044886875386174,-1.1024735689689458,2.7260250527728673
8.16682823897342,-1.1407436795072536,2.7391411681113067
8.276445741347061,-1.1907892086727332,2.788060733427647
8.41071096614791,-1.2408347378382127,2.825282141820514
8.532003705460754,-1.3031463280736628,2.86214906060964
8.678592791475209,-1.3423977234975681,2.8756196655518207
8.837505738703268,-1.3934245375486454,2.9011429170212155
8.89847642049689,-1.4307133632013556,2.9256026996793856
8.959447102290513,-1.4562267702268943,2.9259571892831273
9.044416882236945,-1.4822308196952316,2.9266661684906103
9.080739841603357,-1.5185383604623441,2.9387188150178245
9.117062800969771,-1.5558271861150543,2.9263116788868686
9.165709621549789,-1.581340593140593,2.902560875436182
9.190357343976999,-1.6058727152805339,2.9022063858324403
9.202032580916203,-1.654446317117617,2.9014974066249573
9.238355540282615,-1.6672030206303863,2.913904542755913
9.238355540282615,-1.6554276020032146,2.9022063858324403
9.239004164557016,-1.619610703678901,2.8784555823817533
9.215653690678607,-1.535220203517504,2.8678208942695056
9.203978453739403,-1.4871372441232198,2.8440700908188186
9.216950939227408,-1.39146196777745,2.846197028441268
9.205924326562604,-1.3193375286860238,2.8231552041980645
9.231220673264213,-1.223662252340254,2.8373347883477282
9.280516118118632,-1.1760699353887687,2.862858039817123
9.35510790967466,-1.0931513625557683,2.8897992497014844
9.502994244237915,-1.023970778121135,2.9295020853205433
9.650231954526769,-0.9783410309408447,2.980548588259333
9.84611648539564,-0.9577340483432942,3.01989693427465
10.005029432623699,-0.9724533216272588,3.0702344580059564
10.189238726553368,-0.9518463390297085,3.121635450548488
10.373448020483035,-0.882665754595075,3.186152558429458
10.533658216259894,-0.8252605887876132,3.2379080405757312
10.754190469555976,-0.7811027689357195,3.30207065885296
10.950723624699249,-0.7236976031282577,3.3906930597883584
11.14660815556812,-0.7148660391578789,3.4782519919125328
11.305521102796181,-0.7403794461834176,3.576800101752696
11.452110188810634,-0.7899343329060983,3.674993721989118
11.57405155239788,-0.8272231585588085,3.7728328526217982
11.670696569283516,-0.9238797197901758,3.869254024839512
11.742693863741941,-1.0323116996487147,3.9408609247953144
11.79069206004756,-1.1638038743187982,4.023811492070847
11.826366395139573,-1.2599697931073666,4.058905962841266
11.788746187224358,-1.3065808251732545,4.094000433611684
11.727126881156336,-1.3409257961691718,4.104635121723931
11.727126881156336,-1.3527012147963433,4.116333278647404
11.727126881156336,-1.364476633423515,4.128385925174618
11.787448938675558,-1.4017654590762252,4.140438571701832
11.848419620469182,-1.4518109882417047,4.128385925174618
11.934038024690013,-1.478305680152841,4.104989611327673
12.043655527063652,-1.5293324942039181,4.057133514822557
12.153921653711693,-1.5450330523734803,4.0099863975249255
12.275863017298938,-1.5725090291702142,3.9748919267545078
12.410776866374189,-1.5769248111554035,3.9160466525334026
12.508719131808625,-1.5793780233693977,3.8933593178939407
12.544393466900639,-1.6421802560476464,3.795874676865002
12.508070507534224,-1.643161540933244,3.7104426823632775
12.447099825740603,-1.5950785815389599,3.625719667069036
12.36213004579417,-1.5342389186319063,3.553049298302009
12.290132751335744,-1.4498484184705096,3.4931405552696795
12.266133653182935,-1.378214621821882,3.4335863018410917
12.192839110175708,-1.3649672758663138,3.420824676106394
12.094896844741273,-1.3517199299107459,3.371196131582571
11.996954579306836,-1.3492667176967517,3.3577255266403903
11.862689354505987,-1.3580982816671303,3.367651235545155
11.739450742369941,-1.3796865491502786,3.353471651395491
11.605834141843491,-1.3286597350992013,3.3527626721880077
11.507243252134655,-1.3384725839551777,3.3509902241693
11.483244153981847,-1.3252252379996095,3.3871481637509424
11.445623946066632,-1.3713456276226985,3.446347927575789
11.469623044219441,-1.4066718835042136,3.50661116021186
11.505297379311454,-1.502837802292782,3.5417056309822783
11.553295575617073,-1.6117604245941197,3.564747455225482
11.588321286434685,-1.7564999452197714,3.5867258106574607
11.672642442106715,-1.914486811800991,3.584953362638753
11.756314973504347,-2.08523038189498,3.5711282680928305
11.827663643688373,-2.2427266060334006,3.581408466601337
11.92430866057401,-2.3889380539874487,3.5799905081863703
11.996305955032435,-2.534658859498698,3.5906251962986184
12.055979388277258,-2.6931363685227163,3.56439296562174
12.127328058461284,-2.8393478164767645,3.5385152245486036
12.138354671126088,-3.0091101016851556,3.475061585478858
12.161056520730096,-3.1670969682663754,3.411962436012854
12.172083133394901,-3.276510233010512,3.3375196192271193
12.133814301205286,-3.3976989163818203,3.2623678232339013
12.14548953814449,-3.4948461200559864,3.200332142579122
12.181163873236503,-3.5571577102914365,3.1269527946046116
12.205162971389313,-3.6189786580840875,3.0776787396845298
12.22851344526772,-3.7038598006882832,3.0525099778188767
12.216189584054117,-3.751942760082567,3.0393938624804377
12.178569376138903,-3.8118011381040233,3.0255687679345153
12.104626208857276,-3.858412170169911,3.0113891837848517
11.993711457934834,-3.9163079784201718,2.972749816977018
11.883445331286794,-3.9496716645304915,2.9826755258817825
11.760855343425149,-3.9707692895708404,2.992601234786547
11.625292870075498,-3.9913762721683907,3.002526943691312
11.46573129857304,-4.024249315835911,2.9996910268613792
11.306818351344981,-4.032099594920693,3.009262246162402
11.147256779842522,-4.040440516448273,3.0071353085399526
10.988343832614463,-4.012964539651539,3.0053628605212444
10.829430885386405,-4.009039400109148,3.015288569426009
10.669869313883945,-4.0168896791939295,3.0369124352542465
10.510956366655886,-4.001679763467166,3.023087340708324
10.315071835787014,-4.009530042551948,3.0078442877474356
10.155510264284555,-4.018852248965125,2.9571522744123877
9.959625733415683,-4.003151690795563,2.9064602610773393
9.76438982682121,-3.963409652928858,2.8557682477422914
9.532830960860325,-3.88785071673784,2.769272784429342
9.288948233685835,-3.7995350770340526,2.694829967643607
9.045065506511344,-3.6866873151903246,2.632794286988828
8.801182779336854,-3.5865962568593655,2.5587059598068347
8.594271635803178,-3.4987712595983766,2.497024768755797
8.3873604922695,-3.3991708437102166,2.435343577704759
8.179800724461424,-3.3231212650763995,2.397413190104409
7.935917997286935,-3.2588471050697545,2.322615883714932
7.703710507051649,-3.1710221078087657,2.2240677738747685
7.508474600457176,-3.1072385902449193,2.1740847397472036
7.3138873181371045,-3.0316796540539013,2.1365088417505946
7.142650509695441,-2.9683867789328535,2.086880297226771
7.009033909168991,-2.906075188697404,2.0376062423066896
6.92341550494816,-2.881052424114664,2.000384833913822
6.863093447428938,-2.831988179834782,1.9883321873866078
6.802122765635315,-2.818740833879214,1.9759250512556519
6.752827320780897,-2.7932274268536754,1.9876232081791245
6.703531875926479,-2.815796979222421,1.998612385895114
6.703531875926479,-2.8393478164767645,2.0344158358730153
6.678884153499269,-2.862898653731108,2.033706856665532
6.666560292285665,-2.886449490985451,2.032997877458049
6.641263945584056,-2.9095096857969955,2.04434154477778
6.604940986217642,-2.920794461981368,2.0436325655702965
6.580293263790433,-2.908037758468599,2.0677378586247253
6.531646443210415,-2.89528105495583,2.043278075966555
6.494674859569601,-2.894299770070232,2.0549762328900276
6.482350998355997,-2.9173599648817765,2.090425193264187
6.494026235295201,-2.95317686320609,2.114175996714874
6.51802533344801,-3.0012598226003746,2.1258741536383465
6.554348292814423,-3.0503240668802563,2.1375723105618194
6.614670350333646,-3.1116543722301087,2.1372178209580777
6.662668546639264,-3.1847600962071327,2.1489159778815505
6.735963089646491,-3.246090401556985,2.160614134805023
6.8449319677457305,-3.319686767976808,2.2215863466485772
6.953900845844971,-3.416833971650974,2.2939022258118626
7.026546764577798,-3.51398117532514,2.3414038327132367
7.1355156426770385,-3.5998436028149334,2.377916261898621
7.219836798349069,-3.744583123440585,2.4491686722506816
7.352804774601119,-3.8785285103246627,2.509077415283011
7.449449791486755,-4.0119832547659415,2.5806843152388135
7.557770045311594,-4.193030316158706,2.6515822359871324
7.616794854282016,-4.34905461296873,2.734178313658924
7.664144426313234,-4.505569552221553,2.792669098276287
7.699170137130847,-4.637061726891637,2.8511598828936506
7.673873790429237,-4.719980299724637,2.8975980209837995
7.648577443727628,-4.82694035225478,2.9195763764157783
7.634956333965223,-4.910349567530578,2.9543163575824547
7.609659987263614,-5.006024843876348,2.940136773432791
7.584363640562004,-5.077167998082177,2.9748767545994674
7.583715016287604,-5.1488017947308045,2.9975640892389293
7.570093906525199,-5.243495786190977,3.0440022273290785
7.606416865891613,-5.303354164212433,3.091858323834194
7.629767339770021,-5.387254021931031,3.1514125772627817
7.665441674862034,-5.4583971761368595,3.23542661334954
7.688792148740443,-5.5903799932497416,3.281510261835947
7.651171940825229,-5.660541862569972,3.3283028895298377
7.601227871696411,-5.70715289463586,3.3389375776420858
7.564256288055597,-5.741988508074576,3.3740320484125035
7.551932426841993,-5.75278264181615,3.421888144917619
7.527284704414783,-5.763086133114926,3.48215137755369
7.5149608432011785,-5.749348144716558,3.5424146101897613
7.478637883834765,-5.71156867662105,3.5909796859023597
7.442963548742752,-5.637481667758428,3.6647135234806116
7.418964450589943,-5.575170077522978,3.738092871455122
7.370966254284325,-5.476550946520415,3.8118267090333737
7.38393873977233,-5.391179161473421,3.8979676827425815
7.372912127107526,-5.280293969400888,4.020975575240915
7.300266208374699,-5.180202911069929,4.142919998928024
7.252268012069082,-5.056561015484626,4.265218912218874
7.2289175381906725,-4.945185180969295,4.42438474429885
7.217242301251469,-4.870116887221076,4.570788950644129
7.242538647953078,-4.819090073169998,4.741652939647578
7.315833190960305,-4.806333369657229,4.876004499465643
7.413775456394741,-4.806333369657229,4.986250766229279
7.511717721829178,-4.8185994307271995,5.108195189916388
7.621335224202818,-4.831356134239969,5.194336163625596
7.743925212064464,-4.8450941226383355,5.256371844280374
7.890514298078918,-4.8715888145494715,5.294302231880725
8.06175110652058,-4.898574148903407,5.3446397556120315
8.183692470107825,-4.937334901884514,5.345703224423256
8.257635637389454,-4.904461858216993,5.28650346059841
8.269959498603058,-4.870116887221076,5.214896560642607
8.332227428945481,-4.824487140040786,5.156051286421503
8.49243762472234,-4.745003064307377,5.086925813691892
8.73696897617123,-4.739115354993791,5.06636541667488
9.030795772474539,-4.794067308587258,5.069555823108554
9.36029690386986,-4.885326802947839,5.096851522596657
9.726769618905996,-4.965301521124046,5.1245017116885005
10.03162302787411,-5.08011185273897,5.139035785441906
10.239182795682186,-5.156161431372786,5.176611683438516
10.372799396208636,-5.230739082678207,5.201425955700427
10.446093939215862,-5.269009193216515,5.177675152249741
10.40977097984945,-5.207678887866662,5.214542071038866
10.288478240536604,-5.095812410908532,5.25105450022425
10.130213917582946,-5.007006128761946,5.298910596729366
9.984273455842892,-4.906424427988188,5.359173829365437
9.838332994102839,-4.8293935644687735,5.443187865452195
9.716391630515593,-4.763647477133731,5.587819623778766
9.666447561386775,-4.795539235915655,5.768254832083238
9.65412370017317,-4.816146218513206,5.9128865904098085
9.65347507589877,-4.850000547066323,6.045465702209166
9.62817872919716,-4.930956550128129,6.164574209066341
9.566559423129137,-4.952054175168478,6.260286402076572
9.456941920755497,-4.900046076231804,6.320195145108902
9.371972140809065,-4.825468424926383,6.34430043816333
9.275327123923429,-4.715073875296649,6.357062063898027
9.153385760336185,-4.615964101851287,6.369469200028983
9.03274164529774,-4.469752653897239,6.32196759312761
8.89912504477129,-4.359848746710304,6.261704360491539
8.741509346092032,-4.225412717383428,6.189033991724512
8.54757068804636,-4.06644456591661,6.0802056833758416
8.402927474855106,-3.8858881469666446,5.92423025772954
8.294607221030267,-3.7298638501566206,5.792360125137666
8.283580608365464,-3.588558826630561,5.625395521775375
8.358172399921491,-3.4963180473843827,5.506995994125682
8.457411913904727,-3.4398941664625187,5.424754406057632
8.506707358759146,-3.3829796430978556,5.31769854572767
8.532003705460754,-3.313799058663222,5.210288195793967
8.52097709279595,-3.255412607970163,5.090116220125566
8.447682549788723,-3.208310933461476,4.968880775645941
8.375685255330296,-3.1008602384885346,4.84870879997754
8.242068654803848,-3.0159790958843393,4.7154207089707
8.096128193063793,-2.9065658311402025,4.6062379110182885
7.913864771957326,-2.796661923953267,4.4725953304077075
7.743925212064464,-2.6744919556963613,4.363412532455296
7.573985652171601,-2.576854109579396,4.253875244899143
7.416369953492342,-2.442908722695319,4.145401426154215
7.245781769325079,-2.3330048155083833,4.035864138598062
7.088166070645821,-2.2118161321370753,3.9029305371949636
6.905902649539353,-2.101421582507341,3.793393249638811
6.772286049012904,-2.003783736390376,3.7086702343445697
6.675641032127269,-1.8830856954618664,3.612603551730597
6.554348292814423,-1.7854478493449015,3.564038476017999
6.51867395772241,-1.7015479916263037,3.4924315760621965
6.458351900203188,-1.6171574914649067,3.4328773226336082
6.422677565111175,-1.5577897558862497,3.360561443470323
6.423326189385575,-1.486646601680421,3.3013616796454768
6.374679368805557,-1.451320345798906,3.204586017824021
6.363004131866353,-1.3801771915930772,3.145031764395433
6.351977519201549,-1.3090340373872484,3.0858320005705866
6.364950004689553,-1.250647586694189,3.00217245408757
6.377922490177558,-1.1917704935583309,2.955025336789938
6.414894073818372,-1.1456501039352418,2.9082327090960476
6.501161102313604,-1.1000203567549518,2.873847217533113
6.575104269595231,-1.0784320892718038,2.8511598828936506
6.686019020517672,-1.0210269234643419,2.8415886635926277
6.796285147165713,-1.023970778121135,2.8189013289531655
6.918875135027358,-0.9906070920108151,2.821028266575615
7.029141261675399,-0.9812848855976376,2.7986954215398945
7.1394073883234395,-0.97196267918446,2.8004678695586023
7.250322139245881,-0.9616591878856848,2.838398257158953
7.396911225260335,-0.9528276239153061,2.852577841308617
7.5195012131219805,-0.9552808361293001,2.8784555823817533
7.65376643792283,-0.9700001094132648,2.8922806769276757
7.775707801510075,-1.0200456385787442,2.9295020853205433
7.873650066944512,-1.058315749117052,2.9302110645280264
7.933972124463733,-1.1083612782825316,2.9178039283970705
7.946295985677338,-1.1441781766068455,2.9295020853205433
8.03126576562377,-1.1819576447023545,2.9422637110552405
8.116884169844601,-1.207471051727893,2.9670779833171523
8.27514849279826,-1.2948054065460828,3.0039449021062783
8.530706456911954,-1.3958777497626396,3.0542824258375845
8.811560767727258,-1.4969500929791961,3.129079732227061
9.091766454268162,-1.6102884972657232,3.191469902485582
9.421267585663484,-1.7368742475078185,3.2662672088750586
9.700824647929988,-1.8860295501186595,3.3400010464533105
9.98103033447089,-2.011143373032358,3.4144438632390455
10.200265339218172,-2.172074094270371,3.4389036458972155
10.35788103789743,-2.295715989855673,3.4509562924244297
10.479173777210274,-2.3938444784154367,3.4871142320060726
10.564143557156706,-2.4679314872780584,3.4871142320060726
10.59981789224872,-2.540055926369485,3.510510545853018
10.59981789224872,-2.5763634671365976,3.5098015666455344
10.57452154554711,-2.647997263785225,3.5080291186268266
10.524577476418292,-2.6946082958511126,3.5186638067390743
10.488254517051878,-2.7054024295926866,3.5300074740588054
10.377339766129436,-2.7269906970758346,3.540287672567312
10.230750680114983,-2.6872486592091307,3.5388697141523453
10.047838634734115,-2.6352405602724556,3.5250446196064233
9.853251352414043,-2.534658859498698,3.536388286926154
9.68266316824678,-2.4468338622377095,3.535679307718671
9.499751122865913,-2.333495457951182,3.571482757696572
9.354459285400258,-2.197587501295909,3.5959425403547423
9.245490407301018,-2.062660829526234,3.609058655693181
9.186465598330598,-1.9046739629450145,3.6352908863700595
9.162466500177787,-1.8075267592708484,3.6487614913122397
9.213059193581007,-1.7000760642979071,3.663295565065645
9.336297805717052,-1.6068540001661316,3.6788931076302753
9.52050709964672,-1.5509207616870662,3.670385357140477
9.766335699644412,-1.4841933894664268,3.6990990150435463
10.048487259008516,-1.4302227207585567,3.7164690056268848
10.318314957159016,-1.389008755563456,3.684564941290141
10.502524251088683,-1.3693830578515032,3.663295565065645
10.638086724438333,-1.3129591769296391,3.629973542313935
10.725002377207966,-1.2197371127978636,3.596297029958484
10.786621683275989,-1.1500658859204314,3.5381607349448623
10.897536434198429,-1.0808853014857978,3.5165368691166248
11.032450283273679,-1.0597876764454486,3.519018296342816
11.179039369288134,-1.0862823683565848,3.581053976997595
11.300980732875379,-1.1358372550792655,3.630328031917677
11.422922096462624,-1.22120904012626,3.7150510472119183
11.51956711334826,-1.3306223048703967,3.7749597902442478
11.616212130233896,-1.4390542847289356,3.883433608989176
11.700533285905927,-1.5710371018418179,3.978791312395665
11.747234233662743,-1.7147953375818716,4.073794526198412
11.746585609388344,-1.8212647476692154,4.16879774000116
11.720640638412334,-1.9272435153137601,4.238986681541996
11.707019528649928,-2.0214468643311334,4.321937248817529
11.705722280101128,-2.128897559304075,4.356322740380464
11.74139661519314,-2.2495956002325843,4.390708231943399
11.76474708907155,-2.3575369376483244,4.413395566582861
11.78809756294996,-2.465968917506863,4.424030254695109
11.87306734289639,-2.540546568812284,4.411623118564153
11.945713261629217,-2.6028581590477335,4.3875178255097245
12.067654625216463,-2.677926452795953,4.37546517898251
12.151975780888494,-2.7529947465441724,4.326900103269912
12.212946462682115,-2.8030402757096518,4.278689517161054
12.24926942204853,-2.8418010286907585,4.193612012263072
12.19997397719411,-2.8663331508306995,4.107825528157606
12.151975780888494,-2.8310068949491844,4.01104986633615
12.078681237881266,-2.7951899966248708,3.913919714910953
12.030034417301248,-2.7956806390676694,3.8284877204092287
11.98138759672123,-2.7843958628832968,3.7189504328530756
11.895120568225998,-2.783414577997699,3.6693218883292524
11.773179204638753,-2.770167232042131,3.5831809146200446
11.60194239619709,-2.7794894384553084,3.5080291186268266
11.381410142901009,-2.739747400588604,3.445284458764564
11.162175138153728,-2.6632071795119883,3.406999581560472
10.942291509132046,-2.5871576008781716,3.3449639009056926
10.735380365598369,-2.522883440871526,3.3190861598325565
10.540144459003898,-2.423283024983366,3.281864751439689
10.381880136050238,-2.3236826090952056,3.269103125704991
10.272911257950998,-2.261371018859756,3.2566959895740357
10.19961671494377,-2.235366969391418,3.268394146497508
10.19961671494377,-2.2108348472514776,3.292853929155678
10.272911257950998,-2.235366969391418,3.3417734944720183
10.38252876032464,-2.3089633358112414,3.4027457063155726
10.577116042644711,-2.4085637516994014,3.4640724077628686
10.783378561903987,-2.580288606678988,3.52433564039894
10.989641081163263,-2.7637888802857464,3.5966515195622253
11.158283392507325,-2.9953721132867885,3.6430896576523746
11.253631160844161,-3.213708000332263,3.6526608769533975
11.337303692241791,-3.4075117652377966,3.662586585858162
11.384653264273009,-3.5532325707490457,3.6484070017084984
11.444326697517832,-3.711710079773064,3.598069477977192
11.516323991976257,-3.8461461090999407,3.5721917369040552
11.551998327068272,-3.979600853541219,3.5342613493037045
11.538377217305866,-4.101280179355326,3.4591095533104865
11.537079968757066,-4.221978220283836,3.408417539975438
11.511783622055457,-4.295574586703658,3.322276566266231
11.498162512293051,-4.4285386887021385,3.246770280669271
11.472866165591443,-4.488887709166393,3.2091943826726617
11.484541402530647,-4.562484075586216,3.13546054509441
11.471568917042642,-4.622833096050471,3.109937293625015
11.459245055829037,-4.647365218190411,3.0730703748358894
11.409300986700218,-4.694957535141897,3.047192633762753
11.348330304906597,-4.705751668883471,3.034076518424314
11.249739415197759,-4.727830578809418,3.0202514238783915
11.103150329183306,-4.700845244455483,2.994373682805255
10.956561243168851,-4.685635328728719,2.980548588259333
10.773649197787984,-4.634117872234843,2.9546708471861964
10.62641148749913,-4.629702090249654,3.0011089852763453
10.46749854027107,-4.601735471010121,3.0237963199158076
10.333881939744622,-4.526176534819103,3.0351399872355387
10.174320368242162,-4.522742037719512,3.033013049613089
10.016056045288504,-4.482999999852807,3.0315950911981226
9.845467861121241,-4.395175002591818,3.006426329332469
9.638556717587564,-4.2833085256336885,2.9450996278851735
9.394673990413073,-4.183217467302729,2.87101130070318
9.126792165085774,-4.034062164691888,2.809330109652142
8.883558062185685,-3.885397504523846,2.735950761677632
8.664971681712803,-3.7494895478685732,2.6749785498340777
8.470384399392731,-3.590030753958957,2.6023081810670505
8.324443937652678,-3.4914116229563947,2.553743105354452
8.117532794119002,-3.3923018495110333,2.467956621248986
7.947593234226138,-3.2814166574385,2.406984409405432
7.728358229478857,-3.170040822923168,2.3211979252999657
7.484475502304368,-3.0576837035222386,2.2471095981179725
7.277564358770691,-2.957102002748481,2.209888189725105
7.05832935402341,-2.8687863630446935,2.1840104486519683
6.887741169856147,-2.805002845480847,2.1708943333135293
6.741152083841692,-2.7785081535697107,2.1209112991859644
6.630885957193652,-2.7525041041013734,2.095742537320311
6.557591414186425,-2.751032176772977,2.070219285850916
6.471973009965593,-2.7255187697474383,2.057457660116219
6.398678466958366,-2.699514720279101,2.057103170512477
6.3623555075919525,-2.6744919556963613,2.056748680908736
6.3137086870119346,-2.661735252183592,2.04434154477778
6.2644132421575165,-2.6489785486708226,2.019527272515868
6.252089380943912,-2.6612446097407934,2.0071201363849123
6.265061866431917,-2.6254277114164792,1.9957764690651814
6.265061866431917,-2.6254277114164792,2.008183605196137
6.30203345007273,-2.601876874162136,2.0209452309308347
6.3137086870119346,-2.6259183538592783,2.032997877458049
6.363004131866353,-2.6386750573720477,2.057457660116219
6.41100232817197,-2.724046842419042,2.056748680908736
6.471324385691193,-2.7853771477688944,2.0684468378322083
6.519322581996811,-2.8825243514430605,2.0673833690209835
6.579644639516033,-2.967405494047256,2.0911341724716705
6.652290558248859,-3.04051121802428,2.1269376224495713
6.724936476981687,-3.137658421698446,2.162386582823731
6.821581493867322,-3.235296267815411,2.1985445224053737
6.8449319677457305,-3.3069300644640385,2.258098775833962
6.905254025264953,-3.379054503555465,2.3300601653935056
6.953252221570571,-3.486995840971205,2.389259929218352
7.0012504178761885,-3.5596109225054304,2.4250633791962533
7.060923851121011,-3.69257502450391,2.471856006890144
7.108922047426629,-3.812782422989621,2.50659598805682
7.1932432030986595,-3.934461748803728,2.529992301903765
7.277564358770691,-4.067916493245007,2.5771394192013974
7.324913930801908,-4.175857830660747,2.636339183026244
7.3852359883211305,-4.261229615707741,2.647682850345975
7.445558045840353,-4.358376819381907,2.6831318107201345
7.468908519718761,-4.442276677100505,2.7182262814905522
7.504582854810775,-4.538442595889074,2.7533207522609704
7.527933328689183,-4.646383933304814,2.800113379954861
7.5999306231476105,-4.779348035303294,2.847260497252493
7.721223362460455,-4.88925194249023,2.907523729888564
7.8418674774989,-5.033991463115881,3.027695705556965
7.95018773132374,-5.178240341298734,3.13546054509441
8.071480470636585,-5.311204443297213,3.255632520762811
8.142829140820611,-5.49127021980438,3.3382285984346023
8.239474157706246,-5.599702199662919,3.446347927575789
8.286823729737463,-5.754745211587346,3.565456434432965
8.395143983562305,-5.875443252515855,3.6856284101013657
8.430169694379916,-6.01871084581311,3.7561718412459433
8.453520168258326,-6.150203020483193,3.826715272390521
8.428223821556717,-6.2326309508733955,3.8855605466116256
8.378279752427899,-6.315058881263597,3.9316441950980328
8.292012723932666,-6.3479319249311175,3.9784368227919233
8.181746597284626,-6.357254131344295,3.9887170213004297
8.046832748209376,-6.353328991801905,4.023102512863365
7.9125675234085255,-6.33860971851794,4.021684554448398
7.802301396760485,-6.311624384164005,4.0447263786916015
7.741330714966862,-6.261088212555727,4.081238807876986
7.6933325186612445,-6.210552040947448,4.153909176644013
7.6446856980812266,-6.160506511781969,4.214526898883826
7.584363640562004,-6.085438218033749,4.299958893385551
7.511717721829178,-5.97308109863282,4.421903317072659
7.426747941882746,-5.885256101371832,4.519033468497856
7.378749745577128,-5.809697165180813,4.628925245657751
7.35475064742432,-5.747876217388162,4.714357240159475
7.391722231065133,-5.710096749292653,4.836301663846584
7.404046092278738,-5.709115464407056,4.909326522217353
7.477989259560365,-5.661032505012772,4.9837693390030875
7.551283802567592,-5.6492570863855995,5.069910312712295
7.673873790429237,-5.651219656156795,5.11989334683986
7.845759223145301,-5.618346612489274,5.147189046327963
8.02996851707497,-5.586454853707351,5.162432099288852
8.225853047943842,-5.554563094925427,5.189727798776954
8.434710064300718,-5.511386559959131,5.1815745378908975
8.631243219443991,-5.468210024992835,5.1606596512701435
8.754481831580037,-5.411295501628173,5.1273376285184336
8.829073623136065,-5.317582795053598,5.093661116162982
8.890692929204087,-5.260177629246137,5.022763195414663
8.95296085954651,-5.190506402368704,4.976679546928255
9.063226986194552,-5.145857940074012,4.942648544969063
9.24743628012422,-5.137026376103632,4.981642401380638
9.455644672206697,-5.128194812133254,5.081608469635768
9.663204440014773,-5.16695556511436,5.180511069079673
9.920059652677269,-5.206697602981065,5.292529783862017
10.13994328169895,-5.2591963443605385,5.33081466106611
10.285883743439003,-5.309241873526018,5.4045484986443615
10.35917828644623,-5.309732515968817,5.466229689695399
10.311180090140613,-5.247911568176166,5.490689472353568
10.152267142912553,-5.1836374081695205,5.526138432727729
9.908384415738064,-5.092868556251739,5.584629217345092
9.62817872919716,-4.965301521124046,5.643474491566196
9.359648279595461,-4.89710222157501,5.725716079634246
9.127440789360175,-4.818108788284401,5.80866664690978
8.968527842132117,-4.799955017900844,5.93982780029417
8.858261715484076,-4.771497756218513,6.047947129435356
8.796642409416053,-4.8151649336276074,6.1915154189507025
8.73502310334803,-4.848037977295128,6.298925768884406
8.698051519707215,-4.8450941226383355,6.39534694110212
8.60010925427278,-4.817618145841601,6.4549011945307075
8.515139474326348,-4.755306555606151,6.479006487585137
8.381522873799899,-4.65619678216079,6.466953841057922
8.24790627327345,-4.534026813903885,6.4187432549490655
8.077966713380587,-4.399590784577008,6.32196759312761
7.932674875914933,-4.266626682578528,6.2014411278554675
7.775059177235675,-4.134153223022847,6.007889804212557
7.7160343682652535,-3.9683160773568464,5.816465418192095
7.6446856980812266,-3.801497646805248,5.6608444821495345
7.621335224202818,-3.6837434605335315,5.493525389183501
7.598633374598809,-3.5424384370074717,5.326206296217468
7.612254484361214,-3.4379315966913233,5.158887203251435
7.601227871696411,-3.3800357884410626,5.014609934528607
7.614200357184416,-3.286813724309287,4.8710416450132605
7.639496703886024,-3.229899200944624,4.751578648552343
7.640793952434826,-3.135205209484452,4.668628081276809
7.616794854282016,-3.065043340164221,4.536403459081194
7.581120519190003,-2.9929189010727946,4.488547362576079
7.557770045311594,-2.922266389309765,4.392835169565848
7.460476404151558,-2.8256098280783974,4.296413997348134
7.413126832120341,-2.718159133105456,4.212754450865118
7.32815705217391,-2.6578101126412013,4.1159787890436625
7.256159757715483,-2.549868775225461,4.020266596033432
7.207512937135465,-2.4777443361340348,3.9479507168701464
7.147839503890643,-2.3815784173454664,3.876343816914344
7.111516544524229,-2.3217200393240107,3.8284877204092287
7.064166972493012,-2.21377870190827,3.769287956584382
6.991521053760185,-2.128897559304075,3.7093792135520527
6.9435228574545675,-2.0562824777698494,3.6735757635741515
6.882552175660945,-1.9964240997483937,3.589207237883652
6.797582395714514,-1.9355844368413402,3.5406421621710535
6.737260338195291,-1.8752354163770855,3.4803789295349823
6.676289656401669,-1.8266618145400024,3.4197612072951693
6.628291460096051,-1.7668034365185465,3.35985246426284
6.628940084370451,-1.7314771806370315,3.3119963677577244
6.641263945584056,-1.6961509247555167,3.288600053910779
6.654236431072061,-1.6613153113168004,3.2531510935366197
6.691208014712874,-1.6505211775752264,3.2177021331624602
6.727530974079287,-1.6524837473464218,3.1815441935808173
6.78915028014731,-1.6294235525348773,3.182962151995784
6.826121863788124,-1.6068540001661316,3.1719729742797944
6.875417308642542,-1.583793805354587,3.173036443091019
6.92471275349696,-1.5607336105430425,3.174099911902244
6.974008198351378,-1.5504301192442673,3.1507035980552986
7.022655018931396,-1.5401266279454922,3.1273072842083534
7.108922047426629,-1.5062722993923736,3.104974439172633
7.19454045164746,-1.5200102877907407,3.1180905545110718
7.268483618929087,-1.4861559592376221,3.09540321987161
7.3541020231499195,-1.4763431103816458,3.0727158852321477
7.428045190431547,-1.478305680152841,3.0613722179124165
7.525987455865983,-1.4572080551124917,3.039039372876696
7.599281998873209,-1.459170624883687,3.0159975486334925
7.685549027368442,-1.4370917149577402,3.017415507048459
7.783491292802878,-1.4635864068688764,3.006426329332469
7.880784933962914,-1.4778150377100423,3.007489798143694
7.991051060610955,-1.4802682499240363,3.0089077565586604
8.101317187258996,-1.4827214621380305,3.022378361500841
8.198610828419032,-1.53276699130351,3.0351399872355387
8.296553093853468,-1.5582803983290485,3.0603087491011918
8.35752377564709,-1.5715277442846165,3.0851230213631036
8.442493555593522,-1.621573273450096,3.0851230213631036
8.504112861661545,-1.6348206194056643,3.0858320005705866
8.589082641607975,-1.6730907299439721,3.074133843647114
8.62540560097439,-1.7098889131538835,3.0861864901743283
8.686376282768013,-1.7231362591094517,3.0868954693818114
8.747995588836035,-1.724608186437848,3.087604448589295
8.821290131843261,-1.7260801137662445,3.0886679174005196
8.906259911789693,-1.7766162853745229,3.0769697604770467
8.991878316010524,-1.7780882127029194,3.1021385223427
9.08917195717056,-1.8399091604955704,3.1265983050008703
9.138467402024979,-1.852175221565541,3.163465223789996
9.174790361391393,-1.8889734047754523,3.163465223789996
9.162466500177787,-1.9012394658454228,3.1507035980552986
9.150142638964184,-1.8889734047754523,3.1386509515280845
9.08917195717056,-1.8771979861482806,3.0535734466301014
9.02884989965134,-1.8045829046140556,3.017415507048459
9.00549942577293,-1.7089076282682858,2.9585702328273538
8.982148951894521,-1.6004756484097469,2.935882898187892
9.00744529859613,-1.5052910145067762,2.9259571892831273
9.03274164529774,-1.421881799230977,2.927729637301835
9.131981159280977,-1.3517199299107459,2.9302110645280264
9.279218869569831,-1.3070714676160533,2.945454117488915
9.451104302285895,-1.250647586694189,2.948644523922589
9.635313596215562,-1.218265185469467,2.975940223410692
9.819522890145231,-1.1618413045476028,3.0159975486334925
10.003732184074899,-1.1422156068356502,3.006780818936211
10.126322171936545,-1.1083612782825316,3.0333675392168304
10.236588298584586,-1.0867730107993836,3.0351399872355387
10.33453056401902,-1.101492284083348,3.0241508095195493
10.469444413094271,-1.0916794352273718,3.062790176327383
10.616033499108726,-1.106889350954135,3.076615270873305
10.800242793038393,-1.0862823683565848,3.1035564807576663
10.995478699632866,-1.1142489875961175,3.130143201038286
11.240010051081756,-1.1785231476027627,3.2169931539549768
11.52086436189706,-1.242797307609408,3.3286573791335794
11.788746187224358,-1.367420488080308,3.4392581355009573
12.044304151338054,-1.4787963225956398,3.561911538395549
12.263539156085335,-1.626970340320883,3.6349363967663177
12.396507132337383,-1.7363836050650197,3.7193049224568173
12.49315214922302,-1.8698383495062985,3.7788591758854055
12.57812192916945,-1.9542288496676952,3.851175055048691
12.662443084841483,-2.0396006347146898,3.8993856411575476
12.7110899054215,-2.0994590127361454,3.9592943841898776
12.795411061093532,-2.184340155340341,4.031610263353163
12.868056979826358,-2.3050381962688506,4.0908100271780095
12.976377233651197,-2.439474225595727,4.102153694497741
13.073022250536834,-2.5851950311069762,4.137248165268158
13.156694781934466,-2.7309158366182253,4.171988146434835
13.22869207639289,-2.8766366421294745,4.182622834547082
13.301337995125719,-2.9737838458036405,4.1939665018668135
13.348687567156936,-3.1077292326877184,4.180141407320892
13.36036280409614,-3.1931010177347128,4.1060530801388975
13.310418734967321,-3.2421652620145944,4.007859459902476
13.2494480531737,-3.254921965527364,3.8855605466116256
13.164478273227267,-3.20683900613308,3.7884303951864284
13.09118373022004,-3.1715127502515648,3.654787814575847
13.043185533914423,-3.100369596045736,3.5587211319618746
12.969890990907196,-3.0768187587913927,3.449183844405722
12.87259734974716,-3.076328116348594,3.3389375776420858
12.713684402519101,-3.0390392906958836,3.2162841747474937
12.506124634711025,-3.000278537714777,3.1053289287763746
12.237594185109325,-2.911472255568191,3.042584268914112
11.98138759672123,-2.8108905547944327,2.956088805601163
11.726478256881936,-2.6499598335564203,2.894762104153867
11.482595529707446,-2.5248460106427215,2.8575406957609992
11.312655969814584,-2.3644059318475077,2.869947831891955
11.203687091715343,-2.2540113822177736,2.870656811099438
11.118717311768911,-2.1794337309123533,2.894762104153867
11.070070491188893,-2.1534296814440155,2.9309200437355094
11.046071393036085,-2.152939039001217,2.930565554131768
11.094069589341702,-2.2015126408383,2.9546708471861964
11.203687091715343,-2.287865710770892,2.990828786767839
11.373626651608205,-2.3982602604006265,3.075906291665822
11.531242350287464,-2.556737769424645,3.1478676812253656
11.724532384058735,-2.7878303599828884,3.2191200915774263
11.844527874822779,-3.0066568894711616,3.2410984470094055
11.903552683793201,-3.212236073003867,3.2503151767066867
11.889282949756396,-3.4045679105810036,3.222310498011101
11.838041632078777,-3.5841430446453715,3.206358465842729
11.73880211809554,-3.727410637942626,3.1297887114345446
11.712208522845131,-3.8844162196382483,3.053927936233843
11.686263551869121,-4.0291557402639,3.002526943691312
11.70896540147313,-4.211184086542262,2.927020658094352
11.719992014137933,-4.344148188540742,2.9004339378137325
11.743991112290743,-4.3937030752634225,2.8515143724973924
11.779665447382756,-4.4682807265688425,2.7660823779956676
11.76734158616915,-4.516363685963127,2.765018909184443
11.717397517040332,-4.587997482611755,2.726734031980351
11.668102072185913,-4.5870161977261565,2.713972406245653
11.557835945537873,-4.620870526279275,2.6877401755687753
11.422922096462624,-4.641968151319625,2.67320610181537
11.275684386173769,-4.626267593150063,2.6955389468510904
11.0921237165185,-4.658649994374785,2.6802958938902015
10.884563948710424,-4.605660610552512,2.6664707993442796
10.62770873604793,-4.5521805842874405,2.6395295894599182
10.35917828644623,-4.450617598628085,2.6132973587830404
10.042001016264512,-4.360339389153102,2.5622508558442503
9.749471468510006,-4.233262996468208,2.5604784078255425
9.456941920755497,-4.131209368366054,2.5097863944904946
9.176736234214593,-4.005114260566758,2.483908653417358
8.945177368253708,-3.8687156614686864,2.434634598497276
8.750590085933636,-3.745073765883384,2.385715033180936
8.556002803613564,-3.6327166464824545,2.3609007609190242
8.385414619446301,-3.5581389951770337,2.299219569867987
8.215475059553437,-3.42272168096456,2.25100898375913
7.984564817866953,-3.29809850049366,2.2013804392353067
7.777005050058875,-3.1984980846055,2.1400537377880107
7.570742530799599,-3.0743655465773987,2.090779682867929
7.375506624205127,-2.962008427176469,2.078018057133231
7.143947758244241,-2.8849775636570545,2.0517858264563533
6.9610357128633735,-2.797152566396066,2.0266170645907002
6.753475945055297,-2.7574105285293617,1.9762795408593936
6.595211622101639,-2.6460346940140296,1.9397671116740092
6.473270258514393,-2.631806063172864,1.9138893706008728
6.400624339781567,-2.5464342781258695,1.8904930567539275
6.32797842104874,-2.485103972776017,1.8660332740957575
6.2553325023159125,-2.423283024983366,1.866387763699499
6.219009542949499,-2.3864848417734548,1.8784404102267132
6.182686583583086,-2.3379112399363717,1.8546896067760263
6.146363624216673,-2.2888469956564896,1.8550440963797679
6.110040664850259,-2.2648055159593476,1.8185316671943836
6.08539294242305,-2.252539454889377,1.8064790206671695
6.060745219995841,-2.26382423107375,1.8057700414596862
6.060745219995841,-2.2760902921437203,1.793717394932472
6.097716803636654,-2.2888469956564896,1.8181771775906421
6.134039763003068,-2.325645178866401,1.8178226879869004
6.145714999942272,-2.360971434747916,1.8536261379648016
6.157390236881477,-2.4213204552121708,1.8649698052845327
6.144417751393472,-2.444871292466514,1.8763134726042636
6.181389335034286,-2.468912772163656,1.912825901789648
6.180740710759886,-2.4924636094179995,1.948629351767549
6.217063670126299,-2.504239028045171,1.9975489170838892
6.254035253767112,-2.528280507742313,2.033706856665532
6.2780343519199215,-2.564588048509426,2.0578121497199606
6.326681172499939,-2.6013862317193372,2.081917442774389
6.374679368805557,-2.6622258946263906,2.105668246225076
6.3980298426839655,-2.7461257523449887,2.1407627169954937
6.471973009965593,-2.7466163947877877,2.2024439080465315
6.531646443210415,-2.8432729560191548,2.237892868420691
6.641263945584056,-2.929626025951747,2.2740508080023334
6.774880546110505,-3.0277545145115106,2.310563237187718
6.920821007850559,-3.127354930399671,2.3229703733186735
7.042113747163404,-3.213217357889464,2.3591283129003164
7.187405584629057,-3.336368611031968,2.395286252481959
7.321670809429907,-3.4104556198945892,2.444205817798299
7.418315826315543,-3.5080934660115544,2.492416403907156
7.49096174504837,-3.5934652510585487,2.516167207357843
7.562959039506796,-3.7146539344298573,2.551261678128261
7.6356049582396235,-3.7754935973369106,2.599472264237118
7.732249975125259,-3.8849068620810474,2.6473283607422333
7.865866575651708,-3.983035350640811,2.7079460829820463
7.987159314964553,-4.1164900950820895,2.767854826014376
8.132451152430207,-4.238169420896197,2.8763286447593037
8.314065949262273,-4.408422348547387,2.984802463504232
8.484005509155137,-4.542367735431465,3.1060379079838576
8.6532964447736,-4.736171500336998,3.2379080405757312
8.810263519178458,-4.929484622799732,3.3697781731676044
8.955555356644112,-5.099246908008124,3.465490366177835
9.014580165614532,-5.290597460699663,3.583889893827528
9.048957252157745,-5.494214074461173,3.6533698561608805
9.023012281181737,-5.612949545618487,3.711506151174502
8.972419587778518,-5.7189283132630315,3.757235310057168
8.886152559283286,-5.775842836627695,3.827424251598004
8.775237808360846,-5.820491298922387,3.8735079000844115
8.640323959285595,-5.839626354191541,3.956103977756203
8.469087150843931,-5.822453868693582,4.014594762373566
8.322498064829476,-5.80675331052402,4.0489802539365005
8.126613533960604,-5.776824121513292,4.107471038553864
7.980024447946151,-5.712549961506647,4.167025291982452
7.846407847419702,-5.648275801500002,4.214526898883826
7.724466483832456,-5.572226222866185,4.262737484992683
7.651820565099629,-5.497157929117966,4.335762343363451
7.591498507580407,-5.398048155672605,4.421194337865176
7.568148033701998,-5.311695085740012,4.519387958101598
7.532473698609985,-5.212585312294651,4.629634224865234
7.54479755982359,-5.162539783129171,4.739526002025128
7.618092102830817,-5.150273722059201,4.849772268788764
7.740682090692462,-5.150273722059201,4.996530964737785
7.8989464136461205,-5.199337966339082,5.131237014159591
8.106506181454197,-5.273424975201705,5.277995710108612
8.362712769842291,-5.348983911392723,5.401003602606945
8.606595497016782,-5.412767428956569,5.5243659847090205
8.862802085404876,-5.5123678448447295,5.63532123068014
9.119008673792973,-5.613930830504085,5.67325161828049
9.362891400967461,-5.679676917839126,5.67537855590294
9.497156625768312,-5.731194374333002,5.640284085132522
9.558127307561934,-5.758179708686938,5.567968205969237
9.558775931836335,-5.724325380133819,5.447441740697094
9.559424556110734,-5.653672868370789,5.3641366838178195
9.610017249513954,-5.5604508042390135,5.2694879596188136
9.68396041679558,-5.516292984387119,5.174484745816065
9.806550404657226,-5.483419940719599,5.152860879987829
9.966111976159684,-5.475569661634817,5.118829878028635
10.124376299113344,-5.527087118128693,5.132300482970816
10.246317662700589,-5.577623289736972,5.145062108705513
10.294964483280607,-5.602646054319711,5.1454165983092555
10.246317662700589,-5.625706249131256,5.131945993367075
10.149024021540553,-5.551619240268635,5.11989334683986
9.95378811494608,-5.463303600564847,5.118829878028635
9.7352017344732,-5.301391594441237,5.154987817610278
9.479643770359505,-5.163030425571971,5.165976995326267
9.22408580624581,-5.011912553189934,5.213478602227641
9.00485080149853,-4.897592864017809,5.273032855656229
8.871234200972081,-4.784254459731282,5.3822156536086405
8.810263519178458,-4.7082048810974655,5.515858234219222
8.798588282239253,-4.668462843230761,5.69771140093866
8.834911241605667,-4.666500273459565,5.843761117680198
8.859558964032876,-4.68956046827111,5.940536779501653
8.84723510281927,-4.663556418802773,6.025259794795894
8.737617600445631,-4.636571084448837,6.036603462115625
8.604000999919181,-4.525685892376305,6.012498169061197
8.397089856385504,-4.390759220606629,5.927066174559473
8.215475059553437,-4.244057130209782,5.830290512738017
8.070183222087785,-4.063010068817018,5.6984203801461435
8.023482274330966,-3.909438984220988,5.506995994125682
7.9884565635133535,-3.7799093793221,5.315217118501479
7.9527822284213405,-3.6616645506075844,5.159596182458919
7.930080378817332,-3.5203595270815247,4.980224442965672
7.834083986206097,-3.37709193378427,4.812196370792155
7.749762830534065,-3.2465810439997838,4.631761162487684
7.727060980930057,-3.1042947355881263,4.500954498707035
7.691386645838044,-3.021866805197925,4.36872987651142
7.692683894386844,-2.927663456180552,4.273726662708673
7.717331616814054,-2.869767647930291,4.190067116225656
7.767275685942872,-2.8364039618199715,4.106762059346381
7.779599547156477,-2.8143250518940244,4.022748023259623
7.853542714438104,-2.7691859471565334,3.9518501025113038
7.878190436865313,-2.7711485169277283,3.867481576820804
7.866515199926108,-2.7250281273046397,3.7714148942068317
7.855488587261305,-2.6421095544716393,3.688109837327557
7.819165627894892,-2.583232461335781,3.5675833720554144
7.795815154016482,-2.4762724088056385,3.4722256686489255
7.747816957710865,-2.4291707342969517,3.3758044964312117
7.700467385679647,-2.30945397825404,3.2924994395519365
7.627172842672421,-2.2491049577897853,3.2077764242576956
7.530527825786784,-2.175999233812761,3.1592113485450968
7.4209103234131435,-2.090627448765767,3.0989481159090255
7.348913028954717,-1.9939708875343995,3.026986726349482
7.2516193877946815,-1.9081084600446063,3.0028814332950535
7.1796220933362545,-1.811451898813239,2.9429726902627236
7.167946856397051,-1.7393274597218127,2.932338002150476
7.144596382518642,-1.6549369595604158,2.9213488244344865
7.120597284365833,-1.5828125204689893,2.897952510587541
7.108922047426629,-1.5106880813775632,2.8749106863443377
7.073247712334616,-1.4503390609133084,2.8391072363664365
7.049248614181806,-1.3899900404490537,2.815710922519491
7.074544960883416,-1.3070714676160533,2.805430724010985
7.062869723944211,-1.258988508221769,2.7820344101640395
7.088166070645821,-1.1873547115731415,2.795859504709962
7.149785376713844,-1.1765605778315675,2.7969229735211867
7.187405584629057,-1.1054174236257388,2.7986954215398945
7.236701029483476,-1.082847871256993,2.763246461165735
7.285996474337894,-1.0485029002610757,2.752611773053487
7.3229680579787075,-1.0254427054495312,2.7292154592065416
7.40923508647394,-0.9915883768964128,2.7189352606980357
7.470854392541963,-0.9700001094132648,2.6838407899276175
7.544148935549189,-0.9474305570445191,2.685613237946326
7.642739825258026,-0.9253516471185722,2.6873856859650336
7.740682090692462,-0.8919879610082526,2.6891581339837414
7.851596841614903,-0.8703996935251045,2.6912850716061913
7.961862968262944,-0.8605868446691282,2.6927030300211574
8.083804331850189,-0.8753061179530928,2.694120988436124
8.206394319711835,-0.8900253912370573,2.7079460829820463
8.30303933659747,-0.9886445222396198,2.7075915933783046
8.376333879604697,-1.0377087665195017,2.731696886432733
8.3873604922695,-1.0980577869837564,2.73098790722525
8.423683451635915,-1.1471220312636383,2.730633417621508
8.447682549788723,-1.1952049906579225,2.7660823779956676
8.54562481522316,-1.2329844587534315,2.779198493334107
8.6552423175968,-1.28352063036171,2.7916056294650624
8.812858016276058,-1.3831210462498702,2.80436725519976
8.971122339229717,-1.4581893399980894,2.8415886635926277
9.165709621549789,-1.5828125204689893,2.841943153196369
9.360945528144262,-1.6829035787999485,2.8671119150620226
9.54320894925073,-1.7829946371309076,2.8678208942695056
9.7384448558452,-1.8835763379046653,2.8688843630807304
9.92135690122607,-1.9596259165384822,2.8820004784191693
10.079621224179727,-2.0474509137994708,2.8827094576266528
10.213237824706177,-2.1107437889205185,2.8713657903069216
10.310531465866212,-2.185321440225939,2.8713657903069216
10.371502147659834,-2.2466517455757913,2.883063947230394
10.394852621538243,-2.3074914084828446,2.8582496749684827
10.345557176683826,-2.3305516032943894,2.857186206157258
10.260587396737394,-2.3050381962688506,2.8320174442916044
10.162645131302957,-2.2672587281733416,2.8072031720296926
10.029028530776507,-2.15588289365801,2.8075576616334343
9.920059652677269,-2.0690391812826188,2.8196103081606485
9.835738497005236,-1.946869213025713,2.8206737769718733
9.775416439486014,-1.8492313669087481,2.8213827561793567
9.752065965607606,-1.7520841632345818,2.847260497252493
9.814333895950028,-1.656899529331611,2.873847217533113
9.912924785658864,-1.58673766001138,2.900788427417474
10.085458842649329,-1.5052910145067762,2.9528983991674886
10.294315859006206,-1.4498484184705096,2.969204920939602
10.46620129172227,-1.3811584764786748,3.0089077565586604
10.638086724438333,-1.324243953114012,3.0365579456505047
10.835268503856007,-1.256535296007775,3.0404573312916625
10.970182352931257,-1.2364189558530234,3.006426329332469
11.080448479579298,-1.1907892086727332,3.0089077565586604
11.14271640992172,-1.1324027579796738,2.998627558050154
11.216659577203348,-1.0985484294265553,2.976294713014434
11.339249565064993,-1.0892262230133778,2.9660145145059276
11.449515691713033,-1.0916794352273718,2.9794851194481082
11.571457055300279,-1.1422156068356502,3.0046538813137613
11.705073655826729,-1.2167932581410705,3.0415208001028873
11.801718672712363,-1.3252252379996095,3.125534836189645
11.899012313872399,-1.3865555433494618,3.198559694560414
11.971658232605227,-1.4832121045808293,3.2460613014617876
12.031331665850049,-1.5671119622994272,3.330075337548546
12.067654625216463,-1.638255116505256,3.4140893736353037
12.09100509909487,-1.7334397504082268,3.4973944305145785
12.11435557297328,-1.8291150267539964,3.568646840866639
12.186352867431706,-1.9606072014240798,3.6760571908003428
12.258998786164533,-2.0327316405155065,3.7728328526217982
12.35564380305017,-2.1539203238868145,3.8323871060503865
12.476287918088612,-2.287865710770892,3.892295849082716
12.584608171913453,-2.433586516282141,3.9273903198531337
12.742872494867111,-2.556737769424645,3.9635482594347766
12.864165234179957,-2.6553569004272073,4.00006068862016
13.00945707164561,-2.766732734942539,4.00006068862016
13.131398435232855,-2.842782313576356,3.9277448094568754
13.2533397988201,-2.920794461981368,3.7707059149993487
13.312364607790522,-3.0993883111601384,3.925617871834426
13.322742596180927,-3.2774915178961095,4.055715556407591
13.162532400404066,-3.373657436684678,3.8699630040469954
12.722116518086304,-3.357466236072317,3.537451755737379
12.111112451601278,-3.254921965527364,3.1436138059804666
11.623346997252298,-3.084178395433375,2.67994140428646
11.453407437359434,-2.9777089853460312,2.3889054396146103
11.625941494349899,-2.910981613125392,2.307727320357785
11.956091250019622,-2.954158148091688,2.348139135184327
12.262241907536534,-2.9605364998480725,2.3764983034836544
12.336185074818161,-2.938457589922126,2.3658636153714068
12.11695007007088,-2.8143250518940244,2.316589560451325
11.73880211809554,-2.7000053627218996,2.1680584164835968
11.310710096991382,-2.6200306445456922,2.0666743898135005
10.993532826809664,-2.5410372112550825,2.0514313368526116
10.846943740795211,-2.487557184990011,2.1471435298628423
10.822296018368002,-2.5086548100303605,2.279722641662199
10.845646492246411,-2.5788166793505916,2.411947263857814
10.844349243697609,-2.6597726824123966,2.5799753360313304
10.855375856362414,-2.777526868684113,2.710781999811979
10.878726330240822,-2.883996278771457,2.8426521324038525
10.938399763485645,-2.9777089853460312,3.023087340708324
11.010397057944072,-3.1092011600161147,3.1549574733001977
11.070719115463293,-3.217633139874654,3.214511726728786
11.11806868749451,-3.337840538360364,3.2733570009498907
11.165418259525728,-3.482089416543217,3.3318477855672537
11.261414652136963,-3.6754025390059515,3.390338570184617
11.344438559260194,-3.904532559793,3.4598185325179696
11.391788131291412,-4.072822917672995,3.505902181004377
11.364545911766601,-4.277911458762901,3.441385073123407
11.264657773508965,-4.48152807252441,3.339646556849569
11.104447577732106,-4.5762220639845825,3.2386170197832143
10.956561243168851,-4.671406697887554,3.1017840327389585
10.833971255307207,-4.706732953769069,2.9784216506368835
10.735380365598369,-4.754815913163353,2.867466404665764
10.673761059530346,-4.790632811487667,2.805430724010985
10.612790377736724,-4.8151649336276074,2.707237103774563
10.57581879409591,-4.839206413324749,2.6700156953816956
10.501875626814282,-4.850981831951922,2.5838747216724878
10.428581083807057,-4.850000547066323,2.54665331327962
10.306639720219811,-4.811239794085217,2.533537197941181
10.184049732358165,-4.796520520801253,2.5441718860534293
10.001137686977298,-4.755797198048951,2.56650473108915
9.818225641596431,-4.691032395599507,2.5895465553323533
9.622989735001958,-4.601244828567323,2.6366936726299857
9.427753828407486,-4.5006631277935645,2.647682850345975
9.257814268514624,-4.388796650835434,2.6473283607422333
9.063226986194552,-4.263682827921735,2.6469738711384916
8.832316744508066,-4.1272842288236635,2.6101069523493656
8.576758780394371,-3.977638283770024,2.5728855439564984
8.333524677494282,-3.8049321439048396,2.511913332112944
8.077966713380587,-3.668533544806768,2.426126848007478
7.884028055334915,-3.508584108454353,2.377916261898621
7.677116911801239,-3.373657436684678,2.2804316208696824
7.5195012131219805,-3.2141986427750617,2.257035307022737
7.374209375656327,-3.1038040931453277,2.196417584782924
7.241241399404277,-2.9575926451912795,2.1489159778815505
7.143947758244241,-2.859954799074315,2.1007053917726934
7.05897797829781,-2.7868490750972907,2.064547452191051
6.94936047592417,-2.7368035459318114,2.027680533401925
6.864390695977738,-2.6882299440947284,1.9667083215583705
6.779420916031307,-2.650941118442018,1.9177887562420304
6.645155691230457,-2.6004049468337396,1.880567347849163
6.560185911284026,-2.5277898652995145,1.8203041152130917
6.4875399925511985,-2.466459559949662,1.796198822158663
6.438893171971181,-2.4541934988796914,1.747279256842323
6.414894073818372,-2.4056198970426084,1.7355810999188503
6.390246351391163,-2.3938444784154367,1.6994231603372076
6.378571114451958,-2.358027580091123,1.6756723568865208
6.32927566959754,-2.369312356275496,1.6384509484936531
6.317600432658336,-2.3575369376483244,1.6143456554392248
6.280628849017522,-2.333495457951182,1.5657805797266262
6.268953612078318,-2.333495457951182,1.5533734435956703
6.255981126590314,-2.3452708765783536,1.565071600519143
6.255981126590314,-2.3565556527627267,1.5891768935735715
6.255981126590314,-2.38010649001707,1.6249803435514727
6.2553325023159125,-2.439474225595727,1.6480221677946763
6.315654559835135,-2.488538469875609,1.6724819504528463
6.351977519201549,-2.560662908967035,1.7199835573542201
6.363652756140753,-2.6087458683613196,1.7433798712011654
6.399975715507167,-2.6205212869884913,1.8043520830447197
6.4116509524463705,-2.6440721242428347,1.8281028864954068
6.423974813659975,-2.6435814818000356,1.864615315680791
6.4116509524463705,-2.6548662579844087,1.888366119131478
6.41100232817197,-2.701967932493095,1.9362222156365934
6.43500142632478,-2.7628075954001488,1.9351587468253684
6.446676663263983,-2.810399912351634,1.9709621968032696
6.506350096508806,-2.9320792381657412,1.9815968849155174
6.6036437376688415,-3.0414925029098776,2.0174003348934186
6.687316269066472,-3.175437889793955,2.028389512609408
6.821581493867322,-3.2617909597265475,2.0769545883220064
6.905902649539353,-3.3829796430978556,2.1244561952233805
7.014871527638594,-3.4801268467720217,2.196772074386666
7.049897238456206,-3.6003342452577325,2.2435647020805565
7.098544059036224,-3.67196804190636,2.3275787381673143
7.133569769853838,-3.7916847979492716,2.386424012388419
7.230214786739474,-3.8888320016234377,2.470792538078919
7.376155248479527,-3.997263981481977,2.616133275612973
7.557770045311594,-4.168007551575966,2.7125544478306867
7.739384842143662,-4.325503775714386,2.857186206157258
7.908675777762125,-4.507532121992749,2.9773581818256587
8.078615337654988,-4.6650283461311695,3.109937293625015
8.186286967205428,-4.857850826151105,3.229045800482191
8.282283359816663,-5.0261411840311,3.3244035038886803
8.304985209420671,-5.1811841959555265,3.4186977384839445
8.242717279078247,-5.311204443297213,3.4637179181591273
8.106506181454197,-5.4152206411705635,3.5204362547577825
7.946295985677338,-5.506970777973942,3.553049298302009
7.798409651114084,-5.585964211264552,3.6342274175588347
7.650523316550829,-5.66593892944076,3.679247597234017
7.539608565628388,-5.745423005174168,3.7848854991490124
7.452692912858756,-5.838154426863145,3.8547199510861065
7.341129537661915,-5.9181291450393525,3.9366070495504153
7.217890925525869,-5.986328444588388,4.006087011883768
7.0953009376642235,-6.030486264440282,4.064223306897389
6.960387088588973,-6.026561124897891,4.110661444987539
6.850120961940933,-6.022145342912702,4.1939665018668135
6.739854835292892,-6.030486264440282,4.252811776087918
6.654236431072061,-6.02705176734069,4.336471322570935
6.580941888064833,-6.000066432986755,4.4084327121304785
6.5322950674848155,-5.96081503756285,4.505208373951934
6.495323483844001,-5.958361825348855,4.601629546169648
6.470675761416793,-5.9313764909949205,4.722864990649273
6.508295969332006,-5.88182160427224,4.845163903940124
6.54526755297282,-5.84404213617673,4.979515463758188
6.655533679620861,-5.795959176782446,5.1273376285184336
6.765799806268902,-5.783693115712476,5.274096324467454
7.0103311577177925,-5.810187807623612,5.422272978831441
7.254213884892282,-5.8980128048846,5.5452808713297745
7.522744334493981,-5.985837802145589,5.668288763828108
7.81527388224849,-6.061887380779406,5.804412771664881
8.047481372483775,-6.126161540786051,5.878855588450616
8.365307266939894,-6.203683046748265,5.966769010178531
8.670160675908006,-6.318002735920389,6.0174610235135795
8.963338847936914,-6.372464047071058,6.044756723001682
9.207221575111404,-6.438700776848899,6.010725721042489
9.427753828407486,-6.456363904789656,5.964996562159823
9.57499153869634,-6.449494910590473,5.8824004844880315
9.722229248985196,-6.405827733181378,5.824618679078151
9.857791722334845,-6.3371377911895435,5.803703792457397
9.944058750830077,-6.291998686452052,5.757265654367249
