accx,accy,accz
3.791152322048817,-9.329793249891026,1.6227571902588214
3.791152322048817,-9.329285035856278,1.6469692337893023
3.7913655237315322,-9.304382548153662,1.6958335398235456
3.7672737335846693,-9.267028816599733,1.732481769349228
3.780279036230321,-9.194481263139556,1.770230546308114
3.793284338875973,-9.122441923714126,1.7838773344798395
3.8061830406802666,-9.062853828140005,1.7729819148911232
3.83123423839935,-9.014827601856384,1.7984045605981283
3.8927429238628006,-8.979506726441446,1.8362633923003346
3.9298400166553153,-8.956764148386505,1.8129317867164167
3.9787698028385456,-8.959051111542868,1.7530620063501368
4.015440492265629,-8.973026997498419,1.6928620617538956
4.051791379168639,-9.010634836069718,1.6563238869715335
4.075883169315502,-9.047226246571524,1.6559937227415724
4.124493152974659,-9.083944710582017,1.6803158210153737
4.1728899349511,-9.132479150900386,1.7164137768244543
4.233119410318258,-9.216588573651064,1.7882795242126543
4.293029083161342,-9.323694681474059,1.9203452161970955
4.315841663211911,-9.464724076116436,2.111730414831215
4.32607534398226,-9.630783011970118,2.2420352309225304
4.287485839410736,-9.796969001332487,2.2990435879624807
4.20007314949734,-9.951084907369607,2.3070775842248676
4.088035665230291,-10.117143843223289,2.2904593179834922
3.9767443868527472,-10.210909332634166,2.275161708661961
3.878032007755424,-10.281805190481416,2.2240963077613105
3.8044774272185418,-10.291842417667675,2.234991727350027
3.7184505482427967,-10.313949728179182,2.233340906200221
3.682099661339787,-10.276595996625256,2.2576630044740225
3.645642173595419,-10.251058241379203,2.293981069769744
3.6219767868139874,-10.178637741427712,2.2828655406943867
3.597991597508482,-10.129976247600657,2.2834158144109886
3.610783698471418,-10.08220412833441,2.284406307100872
3.575072416616555,-9.984499980154242,2.321934974573117
3.6004434168597115,-9.900009396877502,2.3722299922705252
3.601296223590574,-9.814756492548643,2.4343008675032127
3.6021490303214363,-9.729630641728468,2.4842657209706593
3.615687337173877,-9.608802754967297,2.535000957641349
3.6532108333318227,-9.536382255015805,2.5974019971039977
3.6540636400626854,-9.451383457704319,2.6473668505714443
3.691800337903347,-9.354949844611017,2.710098054264054
3.7171713381465032,-9.270459261334278,2.760393071961462
3.7425423383896597,-9.185841624548852,2.81068808965887
3.7800658345476057,-9.113294071088674,2.8850850961434387
3.792538132986468,-9.088772743912116,2.9220634898990823
3.8292088224135514,-9.08864569040343,2.9709277959333256
3.853620415084488,-9.088391583386056,3.019682047224248
3.8656663101579194,-9.112150589510494,3.0436739812680886
3.926641991414581,-9.124982993887862,3.080652375023732
3.9508403824028018,-9.148996107029673,3.1047543638108923
3.987511071829885,-9.161701457898355,3.1170804950627735
4.023755357891537,-9.198165814891475,3.141182483849934
4.0477405471970425,-9.246954362227216,3.1285261883680917
4.071725736502548,-9.29561585605427,3.1279759146514903
4.119802715954916,-9.381504027926564,3.090777411409206
4.191545082188715,-9.540320913785097,3.0404823937117977
4.213824658032496,-9.745766437331696,3.012968707881706
4.22331213291334,-9.9993652406706,2.960142431087929
4.2693636963799095,-10.277104210660003,2.943634219589874
4.266059070297818,-10.577839865721721,2.9261355154019357
4.2746937384478,-10.902842740942623,2.908306646984036
4.234611822097267,-11.202053753900097,2.926465679631897
4.218621695893597,-11.549799207175942,2.944184493306476
4.190372472933779,-11.885093416600476,2.974119383489616
4.113086862949374,-12.231441281280764,2.990957759217632
4.0236487570501795,-12.566481383687925,2.959482102628007
3.8980729659306905,-12.851970617707224,2.964764730307385
3.7241003928347602,-13.07672827457422,2.946165478686243
3.514842941249398,-13.18078509818873,2.9050050046844254
3.294072598797393,-13.211786154308315,2.901373198154853
3.049743470405314,-13.15956716223803,2.8263158632103624
2.8429378381711814,-13.036071151794435,2.7530194041589975
2.6733358995709207,-12.877254265935903,2.6808234925408363
2.4794289691410816,-12.693916052900812,2.608847690409316
2.322086127296968,-12.535861488094401,2.5126598447473145
2.164423482928781,-12.401947089938485,2.4160317801120317
2.030959229548815,-12.292808125976501,2.307187638968188
1.9222263713638585,-12.171853185706643,2.211109848049507
1.8255394082523335,-12.06309538227072,2.126917969409426
1.7784218363721855,-11.895130643786736,2.056703043171031
1.743563361248185,-11.727165905302751,1.9987041934411973
1.745588777233983,-11.548528672089073,1.9172636833841252
1.7715993825252865,-11.417536504632956,1.883696986671413
1.8099756854140945,-11.274601307360276,1.8625664759539025
1.8478189840961137,-11.180454657423338,1.8042374619941077
1.8729767826565547,-11.12226415044477,1.7330320430658297
1.8856622827781329,-11.086943275029833,1.7097004374819118
1.9466379640347948,-11.112099869749825,1.7221366234771134
1.9832020526205203,-11.124551113601134,1.7466788312375554
2.092787717536339,-11.174610196023744,1.7715512032279586
2.214206075842874,-11.273330772273408,1.7835471702498786
2.359716224296272,-11.395937408156195,1.8317511478241997
2.4686622841639436,-11.518162883512922,1.8553028628947583
2.5772885415075426,-11.652077281668836,1.902846512009157
2.6370916135092686,-11.784721144737883,1.9497298326636336
2.708940580584426,-11.930070358675612,1.9722910550443091
2.7200270680856375,-12.038319948076788,1.9826362009164236
2.74315945066028,-12.15952899536402,1.9565532267494965
2.7663984340762804,-12.281246256686,1.9062582090520885
2.7408142321504085,-12.377679869779302,1.8557430818680398
2.751794118810262,-12.499524184609967,1.7811259658968304
2.751261114603473,-12.56152629684914,1.6831772443417032
2.713631017604169,-12.646398040651938,1.5963440518619332
2.7130980133973805,-12.70840015289111,1.4983953303068058
2.6757877189221504,-12.769639944078161,1.3879003680131567
2.6877270131542237,-12.808137157210268,1.2785059531527112
2.67482831134993,-12.869249894888632,1.2045491656414242
2.6745085088258564,-12.907238893985994,1.1070406630595784
2.6986002989727194,-12.95742502991729,1.0217482369862936
2.7107527948875085,-12.970892701838093,0.9612181281600912
2.673762302936352,-12.995541082523337,0.8875915048787653
2.6738689037777097,-12.996430457084145,0.8391674178178036
2.6495639119481313,-12.984995641302332,0.778527254248281
2.6254721218012684,-12.949293605361333,0.7304333314172803
2.5770753398248267,-12.900759165042965,0.6943353756081997
2.5040537634947335,-12.863532486997725,0.6697931678477577
2.4556569815182923,-12.802800909845422,0.6460213432905583
2.3826354051881986,-12.766209499343617,0.5851610702343949
2.3224059298210413,-12.681337755540817,0.5495033333985958
2.2373384584175167,-12.619716803827705,0.5251812351247945
2.16495648713557,-12.522393816173597,0.5017395747975563
2.0804220199388346,-12.424943775010801,0.46597178321843674
2.0083598511809613,-12.291791697907007,0.43108442958588017
1.92361218230151,-12.206919954104206,0.37088448498963905
1.8269252191899847,-12.097145722598789,0.33522674815383996
1.7546498487493962,-11.988006758636805,0.29989917554800194
1.670328583235376,-11.866797711349573,0.25246558117692347
1.5862205194040713,-11.721321443903157,0.2175782275443669
1.5143715523289139,-11.576099283474115,0.18291098339845108
1.4670407787660504,-11.431258283571132,0.1606799252477368
1.3948720091668194,-11.30966807575784,0.1497845056590204
1.3720594291162502,-11.153265206564356,0.1279936664815876
1.3487138448588918,-11.056577486453682,0.12942437814475238
1.3377339581990384,-10.936130760218571,0.131405363524519
1.351272265051479,-10.815938141000833,0.14593258964280753
1.3526580759891305,-10.695745521783095,0.14813368450921488
1.3536174835613506,-10.599438962198482,0.16189052742426085
1.3676887946205802,-10.430711902662376,0.20151023501959323
1.3815469039970945,-10.286760277320202,0.2042616036026024
1.395618215056324,-10.117906164275409,0.25587727821985484
1.409476324432838,-9.973700431915862,0.27084472331142484
1.4354869297241415,-9.830257020608435,0.26160012487251394
1.436872740661793,-9.709810294373323,0.27590724150416174
1.4748226401851698,-9.590507049716393,0.27865861008717097
1.47578204775739,-9.506143519948342,0.2921953435155762
1.4896401571339042,-9.362318948114854,0.2829507450766653
1.514797955694345,-9.30285790604942,0.28438145673983006
1.577266048730016,-9.18355466139249,0.3115649783399609
1.639307738400256,-9.112404696527866,0.33797811673684913
1.7133953231439274,-9.0542141895493,0.32796313509469566
1.7753304119728095,-8.995515468535986,0.32983406573114193
1.836945698277618,-8.960321646629735,0.355586875668108
1.862103496838059,-8.9008606045643,0.3569075325879524
1.8997335938373625,-8.81802171690049,0.33478652918055846
1.875961606214573,-8.757798353782935,0.31134486885332013
1.8893933122256559,-8.650184031925193,0.3013298872111667
1.8655147237615086,-8.589706561790264,0.28999424864916884
1.841849336980077,-8.517540168856145,0.26677269780857127
1.7934525550036355,-8.469513942572526,0.20646269846900975
1.708171881917395,-8.432414318035972,0.15748833769144616
1.6721407975384586,-8.371936847901043,0.13382656787756708
1.61148491880587,-8.323148300565302,0.09761855732516612
1.5508290400732816,-8.274359753229561,0.06130049202944479
1.4899599596579776,-8.237387182201694,0.03697839375564354
1.4536090727549675,-8.20028755766514,0.04919447026420435
1.4049990890958104,-8.175385069962523,0.03686833901232317
1.380054492218085,-8.210578891868774,0.047983868087680306
1.343277201949644,-8.209054249764533,0.0837516596667998
1.3302718993039924,-8.280712428663902,0.09442696976887546
1.3051141007435514,-8.34004641722065,0.10510227987095112
1.304261294012689,-8.412339863663453,0.09167560118586628
1.3405055800743413,-8.4601119829297,0.15187554578210738
1.327287075745974,-8.543713191645633,0.16222069165422195
1.3140685714176066,-8.627568507378937,0.16056987050441643
1.3007434662478816,-8.735945150288801,0.13426678685084856
1.2750526634806516,-8.843559472146541,0.13195563724112083
1.22569647393199,-8.87849918703542,0.13063498032127643
1.15203529255375,-8.889044628256427,0.11731835637951195
1.0792269179063723,-8.827550730052002,0.10532238935759186
0.9210312693313962,-8.739502648532032,0.1167680826629101
0.8122984111464397,-8.605334143358743,0.09343647707899215
0.7035655529614833,-8.470784477659395,0.08221089326031465
0.6315033842036101,-8.336997133012165,0.08364160492347943
0.5346032194093695,-8.238784770797249,0.07197580213152045
0.46264765149285414,-8.106013854219515,0.01276635022516265
0.3663870917467603,-7.961045800807847,-0.058549123446435605
0.2576542335618038,-7.826750242125872,-0.08188072903035355
0.16118047213299436,-7.6923276299352095,-0.08078018159714988
0.0641737064973959,-7.607074725606349,-0.14109018093671136
-0.03261985745548695,-7.4971734405922446,-0.16464189600727006
-0.09295593366400202,-7.424117673097319,-0.18841372056446945
-0.14113951395772786,-7.351570119637142,-0.2240714574002686
-0.1283474129947918,-7.303289786336148,-0.1988689211799044
-0.09199652609178183,-7.327557006495331,-0.16244080114086268
-0.030914243993762143,-7.340262357364014,-0.1255724621285395
0.07845821923934117,-7.414334552928434,-0.10114030911141789
0.16277948475336135,-7.534654225654858,-0.0052826276793776486
0.23484165351123448,-7.6542115773291615,0.11456698779650275
0.3323814233536219,-7.691311201865715,0.17575742508262718
0.3686257094152741,-7.7275214518414606,0.21196543563502815
0.49047047108724007,-7.776818213211949,0.29747797119495384
0.5638118499414068,-7.7888882965371975,0.3829905067548795
0.6858698132960884,-7.814044891257189,0.46894326128808667
0.7952422765291917,-7.887608872786862,0.5296934796009296
0.9290263324332313,-7.974259365711277,0.5542356873613716
1.0747496825693446,-8.085177078794876,0.590553752657093
1.1831627382302277,-8.243231643601288,0.6255511610329698
1.315560983196616,-8.450328862760815,0.6357862521617641
1.4477460264802886,-8.680549820501344,0.6940052113782386
1.5430471786541622,-8.922332647532375,0.7393477656262301
1.6503942259014672,-9.176058504379967,0.796796341639462
1.7332230796364783,-9.42927614719281,0.8539147534227328
1.7921733449073418,-9.633324082143854,0.9357954824530863
1.8391843159461319,-9.813994171496521,0.9694722339091189
1.8870480937157843,-9.909919570555076,1.0411178718106782
1.9226527747292896,-10.004828541544134,1.1487514107779977
1.922546173887932,-10.003176845931206,1.2334935631346808
1.8981345812169956,-9.989455066993028,1.2939136172175627
1.8497377992405541,-9.927198847736483,1.3548839450170465
1.7765030212277453,-9.900009396877502,1.4269698018918873
1.7401521343247353,-9.861766290762768,1.4997159872266503
1.7033748440562941,-9.859606381115093,1.5719118988448115
1.7025220373254317,-9.930756345979715,1.6190153289859288
1.7016692305945693,-10.002160417861711,1.6540127373618059
1.7133953231439274,-10.050059590636645,1.6775644524323645
1.7000702179742022,-10.144968561625703,1.7240075541135595
1.6998570162914866,-10.156403377407518,1.7601055099226401
1.6509272301082563,-10.141665170399847,1.8444074433060418
1.602423847290457,-10.090843766925115,1.9293697051493657
1.5418745693992264,-10.028460494159884,1.9781239564402886
1.4807922873012067,-10.00139809680959,2.06242588982369
1.4558476904234814,-10.035194330120285,2.14617754949049
1.3944456058013883,-10.044469236254423,2.217713132648729
1.357668315532947,-10.042563433624121,2.27780302250165
1.295733226704065,-10.099356352007133,2.3726702112438067
1.2463770371554033,-10.12070134146652,2.456311816167286
1.1602435573383005,-10.152718825655601,2.563505136161324
1.0743232792039135,-10.16072319670287,2.6710286203853233
0.9881897993868106,-10.180670597566701,2.7784420498660025
0.9389402106795067,-10.202523801060837,2.837871611259001
0.9144220171672126,-10.20074505193922,2.898071555855242
0.864532823411762,-10.26998921417354,2.992938744597399
0.8756193109129733,-10.377222375505221,3.051707977530475
0.8620810040605326,-10.484455536836903,3.0858249479597895
0.8852133866351753,-10.604266995528581,3.132378104384305
0.8838275756975239,-10.736529698071566,3.130066954774577
0.9437372485406078,-10.858755173428294,3.0923181778156907
0.9671894336393239,-10.955188786521594,3.1029934879177667
1.0153730139330497,-11.028752768051268,3.0903371924359244
1.026459501434261,-11.137637624995877,3.064254218268997
1.0743232792039135,-11.234579452123926,3.075259692601034
1.0730440691076197,-11.354772071341664,3.073168652477947
1.0595057622551791,-11.462259339690718,3.0951796011420205
1.0458608545613806,-11.57991088873472,3.213928669184697
0.99597166080593,-11.647630408864798,3.3814319885182966
0.9711336647695625,-11.66795897025469,3.5501459100284203
0.9093051767820383,-11.698705919356902,3.754517568374343
0.8589895796611564,-11.802000421919292,3.9455726027785016
0.7716834905891178,-11.929308037623493,4.0993190791970555
0.6836311956275746,-12.129163206787869,4.227642909908604
0.5960053040314626,-12.29407866106337,4.296096960253872
0.5572025977772231,-12.486183566197852,4.255706869455298
0.5552837826327828,-12.666218388007085,4.2646213036642475
0.65186414490295,-12.789333237924618,4.227422800421963
0.786501007537852,-12.819444919483397,4.071475229137002
0.9458692653677637,-12.813854565101176,3.9285141175638447
1.0934048298069596,-12.771926907234523,3.7861032797072887
1.2287878983313663,-12.730507463402619,3.595158300046451
1.3398659750261943,-12.663423210815974,3.4647434292118153
1.4134205555630768,-12.66723481607658,3.3567797260145347
1.5251382373060516,-12.554157193345302,3.118401151982618
1.6007182338287322,-12.392418076786974,2.8682467204154225
1.6882375245834864,-12.241097347940963,2.7148304082268297
1.7396191301179462,-12.041369232285273,2.537642271481038
1.766375941298754,-11.853202985920083,2.347687784510083
1.8167981392609938,-11.73758429301507,2.1689588813578062
1.927769615114464,-11.68320539129711,2.0021158904841285
2.0505737843586505,-11.665036739554893,1.84682864765909
2.1612254576880474,-11.646232820269242,1.7034273171126508
2.272410135224233,-11.566951430848663,1.5854486322732166
2.359716224296272,-11.426049089714972,1.5165543629546665
2.385193825380786,-11.342956095033788,1.494213250060632
2.3748535437690794,-11.161650738137688,1.5336128481693236
2.3880720480974467,-11.077160154860948,1.5716917893581708
2.462692637047907,-10.956713428625836,1.671731551036385
2.5612984153038725,-10.897506493577776,1.7467888859808758
2.7211996773405733,-10.827881170817395,1.8107306918500095
2.8813141410599896,-10.74643987174914,1.8628966401838636
3.0053975204004693,-10.591561644659897,1.9400450152514415
3.0805511135577186,-10.436048150027222,1.992321018328616
3.0946224246169485,-10.26757519750849,2.0197246494153878
3.035458957663369,-10.073183329217647,2.0586840285507977
2.9391983979172753,-9.913604122306992,2.120754903783485
2.7936882494638775,-9.777402760994715,2.1574031333091677
2.6233401049741123,-9.677284596149496,2.156852859592566
2.489236246545999,-9.614139002332143,2.156082476389323
2.3056695977278667,-9.597113832168109,2.2023054685838774
2.1343620456658816,-9.579961608495386,2.2606344825436726
1.963054493603896,-9.563571705874786,2.2827554859510664
1.8286308326517096,-9.536509308524492,2.281434829031222
1.7309844619679644,-9.509955125208945,2.292550358106579
1.6705417849180915,-9.436772304205334,2.2809946100579404
1.6837602892464587,-9.353806363032836,2.234221344146784
1.783112273391929,-9.224465891189647,2.201645140123955
1.919348148647198,-9.096777114959387,2.133301144522007
2.0677365198172564,-8.968834231711753,2.0891691924505396
2.216231491828672,-8.840637241446744,2.057253316887633
2.2907454799377747,-8.746871752035867,2.023686620174921
2.353213572973446,-8.641671446843175,1.9418058911445673
2.403209367570254,-8.559976040757546,1.8713708554195319
2.526226738497156,-8.515634366225843,1.8254780274549387
2.6735491012536365,-8.483616882036763,1.7918012759989062
2.8321711531940434,-8.536089981124423,1.756803867623029
3.015737802012176,-8.552479883745024,1.7468989407241962
3.2111371442210244,-8.605207089850056,1.7365537948520815
3.4061100830644415,-8.694525706456895,1.7014463317328843
3.613235517822648,-8.795406192354235,1.7025468791660878
3.808208456666065,-8.884216594926327,1.6915414048340511
4.015333891424271,-8.985097080823667,1.692641952267255
4.185682035914036,-9.084961138651511,1.7052982477490972
4.3805483739160955,-9.185333410514104,1.7182847074609005
4.55142952261265,-9.236535974514895,1.756143539163107
4.685533381040763,-9.287484431498314,1.7691299988749103
4.807697945236802,-9.313784507796486,1.7946626993252357
4.8930852191644005,-9.339068156025165,1.8316410930808793
4.97889889645743,-9.32763334024335,1.9057079353354867
5.028041884323376,-9.303112013066793,1.9915506351253733
5.077291473030679,-9.27884479290761,2.06528731315002
5.077398073872038,-9.252671770118123,2.1746817280104653
5.114708368347268,-9.191177871913698,2.2972827120693546
5.090083573993616,-9.18711215963572,2.4785428743180002
4.967599207273503,-9.168435293858757,2.682914532663923
4.747361869028287,-9.137307184230485,2.789337469454719
4.49034724051463,-9.119265585996954,2.798141848920348
4.2701099022694144,-9.101223987763426,2.843814567398301
4.074070955012419,-9.108593091267261,2.8530591658372115
3.902870003791792,-9.08064131935616,2.8510781804574448
3.7564004477661737,-9.041508838680617,2.8376515017723603
3.5978849966671245,-8.977600923811144,2.8487670308477173
3.4761468358365164,-8.902004086142481,2.884644877170157
3.3909727635916336,-8.851436789685126,2.9086368112139973
3.30537228798132,-8.837079743203514,2.931858362054595
3.2810672961517415,-8.811541987957462,2.980392503858877
3.2562293001153737,-8.846608756355026,3.0036140546994745
3.2678487918233743,-8.893999715095212,3.051377813300514
3.291833981128879,-8.94177183436146,3.099251626644874
3.3032402711541637,-9.01254063870002,3.182783176825033
3.388094540874973,-9.08585051321232,3.218991187377434
3.4360649194859834,-9.169959935962998,3.278640858257073
3.5330716851215818,-9.255339893800546,3.3268448358313942
3.593301160488739,-9.339957530585972,3.374608594432434
3.678262031050906,-9.413394458606957,3.410816604984835
3.73913111146621,-9.43816989280089,3.447464834510517
3.7754819983692203,-9.474507196285321,3.4715668232976777
3.80021339356423,-9.450621136652199,3.4965492500314013
3.8008529986123767,-9.390524827043329,3.497649797464605
3.7768678093068715,-9.341609226198901,3.5103060929464474
3.7410499266106507,-9.257118642922162,3.48708454210585
3.7297502374267237,-9.173009220171483,3.4764092320037743
3.705978249803934,-9.112023536001805,3.489175582228937
3.669733963742282,-9.063616149192125,3.465403757671737
3.657794669510208,-9.039603036050314,3.4535178453931374
3.68146005629164,-9.11265880354524,3.4283153091727736
3.6919069387447045,-9.28163997009872,3.401241842315963
3.7501109981260634,-9.560141261140242,3.3607416967740678
3.795309754861771,-9.911063052133256,3.294598796038527
3.8518082007814054,-10.345586051842202,3.2633432489355423
3.908519848383755,-10.755841831391963,3.2446339425710797
3.927814600669517,-11.23686641528029,3.2483758038439725
3.93495685704049,-11.693242618483369,3.2765498181339865
3.929946617496673,-12.149237661160388,3.30461377768068
3.900951188647351,-12.556571210010352,3.333117956200655
3.8602296672486713,-12.91537031854195,3.374498539689114
3.820360952580854,-13.190314111340243,3.4053138678188164
3.708216867472448,-13.368824291045232,3.3642634485603193
3.5726205972653258,-13.450773804148236,3.3124276644564263
3.4135721419594875,-13.448359787483186,3.2496964607638166
3.2676355901406584,-13.363106883154327,3.1281960241381306
3.1098663449311137,-13.242151942884467,2.9829237629552456
2.97725489828201,-13.0614818535318,2.8390822134355247
2.8444302499501903,-12.905460144864378,2.670698456155362
2.699986109910371,-12.688579805535966,2.527297125608923
2.5557551715532667,-12.459121168847558,2.408438002822926
2.412057237402952,-12.16918506202422,2.3147814162572935
2.2561002064964897,-11.878994848183508,2.22101477494834
2.137240268382542,-11.55348375892786,2.1283486810725907
2.042791922939531,-11.240169806506145,2.0601147402139626
1.9729683718501716,-10.916056305846052,1.9560029530328946
1.927343211749033,-10.614939490258275,1.93663331820851
1.9295818294175466,-10.411272715833292,1.9039470594423609
1.9076220560978399,-10.18308461423175,1.8714809101628522
1.8971751736447753,-10.026935852055642,1.8499101804720604
1.9108200813385738,-9.895054310038716,1.8525514943117491
1.911886089752152,-9.798620696945415,1.8664183919701154
1.9245715898737301,-9.763553928547852,1.8308707098776367
1.9981261704106124,-9.753008487326845,1.844187333819401
2.095665940253,-9.790870432915519,1.8690597058098042
2.2054648068515346,-9.828732378504194,1.9062582090520885
2.302258370804417,-9.938887770535672,1.9177039023574067
2.4237833299523097,-10.025792370477461,1.917813957100727
2.557354184173634,-10.124512946727124,1.9421360553745284
2.6665134457240214,-10.22272530894204,1.9661279894183685
2.775246303908978,-10.35727497464139,1.977353573237046
2.8845121663007234,-10.443925467565807,1.9772435184937256
2.981412331094964,-10.542264883289409,1.9769133542637645
3.1143435802681414,-10.701844090200064,1.9637067850653205
3.2355487368919604,-10.812253589248915,1.9876987191091606
3.3680535826997064,-11.019477861917128,1.9979338102379547
3.524756819495673,-11.25160462228796,1.9838468030929477
3.6933993505237135,-11.508887977378784,1.9331115664222582
3.8008529986123767,-11.765154904400113,1.8573939030178452
3.8715293564325983,-12.033491914746689,1.7325918240925484
3.9052152223016634,-12.324444449639522,1.6431173177730893
3.940500100791095,-12.472715894277048,1.4714319181933158
3.755227838511238,-12.628483495927096,1.272452942270091
3.2402391739117036,-12.719834968672926,0.9004679098472483
2.871826666179145,-12.824018845796122,0.6635200474784967
2.63847742444692,-12.891992472943574,0.5985877489194797
2.4169608761054104,-13.011041610583131,0.38761280597433495
2.3678178882394647,-13.036579365829182,0.25323596438016605
2.465997263129999,-13.01548848338717,0.21878882972089095
2.4301793804337777,-12.943195036944365,0.18324114762841218
2.3585436150413357,-12.773959763373513,0.14901412245577783
2.188515273075644,-12.636869027500428,0.1974382095167396
1.932673253816923,-12.510577839865721,0.20822357436213565
1.7016692305945693,-12.360654699615267,0.2318853441760147
1.4948635983604364,-12.221912268129252,0.3282932993246568
1.2761186718942297,-12.059029669992741,0.4129253969380195
1.094257636537822,-11.885347523617849,0.47400577948082356
0.9246556979375615,-11.711665377242959,0.5595183150407492
0.7676326586175214,-11.502789408961815,0.6094831685081962
0.6350212119684175,-11.30649173804067,0.6595580767189635
0.5272477613556812,-11.074237924161151,0.734835521150095
0.44399250425523906,-10.85570588921981,0.7496929114983446
0.3971947348991646,-10.649625098129778,0.7890925096070363
0.3624428606165217,-10.468065634216304,0.8160559217205263
0.3523157806875306,-10.274944301012328,0.8435696075506183
0.32939659979560354,-10.129976247600657,0.8579867789255864
0.2947513263543184,-9.936600807379309,0.8730642787604768
0.23494825435259228,-9.802940516240767,0.8746050451669619
0.2124554768260964,-9.622143373379414,0.8775765232366118
0.16491150158051737,-9.489499510310367,0.8430193338340164
0.19102870771317848,-9.346564313037687,0.809672746607945
0.2533901999074918,-9.252417663100749,0.7758859404085922
0.37704717588254033,-9.147344411416745,0.7674117251729238
0.5249025428458096,-9.06704659392667,0.7467214334286947
0.6973827041627308,-8.975186907146094,0.7265814154010674
0.9061071515413042,-8.919410416832578,0.7547554296910816
1.1277303007241715,-8.8159888607615,0.7718139149057385
1.373125437529828,-8.773298881842727,0.7881020169171529
1.5943221833472643,-8.705452308203961,0.8287122172023685
1.7786350380549012,-8.649294657364385,0.8444500454971812
1.9383230984088864,-8.60508003634137,0.8353155018015906
2.036715674982136,-8.571919070574108,0.800978421885636
2.0856454611653668,-8.573316659169663,0.7895327285803178
2.1594132433849644,-8.551590509184216,0.7546453749477612
2.2207087271657,-8.553496311814518,0.7313137693638432
2.245546723202067,-8.5189377574517,0.6838801749927648
2.294902912750729,-8.496449286414133,0.6607686788954875
2.35641159821418,-8.474469029411312,0.6256612157762902
2.4180268845189885,-8.440291635574555,0.6029899386522944
2.4913682633731553,-8.454394575038794,0.5795482783250562
2.5895476382636895,-8.44689841802627,0.4600288270791369
2.6506299203617094,-8.4601119829297,0.47279517730429954
2.7114990007770134,-8.483870989054138,0.5578674938909437
2.7482762910454546,-8.485014470632319,0.5463117458423051
2.7236514966918026,-8.497846875009689,0.4731253415342606
2.686980807264719,-8.498355089044436,0.39993893722621615
2.6377312185574153,-8.521478827625437,0.386732368027772
2.564176638020533,-8.532151322355132,0.37341574408600753
2.5029877550811555,-8.530753733759576,0.37264536088276495
2.417600481153557,-8.505851246056958,0.31134486885332013
2.3197409087870966,-8.492510627644842,0.2618202343591547
2.22166813473792,-8.50140437325292,0.30870355501363134
2.1112296630912386,-8.509535797808876,0.37957880971194813
1.9520746069440427,-8.506232406583019,0.36527169308030033
1.7807670548820573,-8.503183122374535,0.3145364564096108
1.645703788881724,-8.536852302176543,0.2757971867608414
1.4866553335758856,-8.521732934642811,0.2496041578505939
1.3639577651730572,-8.543204977610884,0.23540709596226644
1.2281482932832195,-8.634937610882773,0.304411420024137
1.1535277043327592,-8.741408451162334,0.3015499966978074
1.0661150144193627,-8.895905517725515,0.2853719494297134
0.9909614212621134,-9.036807858859206,0.36648229525682435
0.9166606348357265,-9.106814342145647,0.3883831891775775
0.8070749699199076,-9.055992938670915,0.39993893722621615
0.7347995994793188,-8.946218707165498,0.40081937517277905
0.6015485477820682,-8.810906720414028,0.4014797036327013
0.5049681855119009,-8.676484108223365,0.4024701963225846
0.42032711747380735,-8.577255317938954,0.463660633608709
0.3846158356189442,-8.48094875835434,0.42855317048951175
0.37406235232452195,-8.338013561081661,0.3462322224858767
0.33781806626286975,-8.288716799711171,0.37088448498963905
0.32673157876165854,-8.179323728731815,0.42106944794372675
0.31607149462587847,-8.048712721801756,0.3264223686882105
0.3053048096487406,-7.9184828753977605,0.2076733006455338
0.31852331397710787,-7.834119345629707,0.2335361653258202
0.3685191085739163,-7.738702160605901,0.26016941320934917
0.4056162013664309,-7.703254231682276,0.2733759824077933
0.46691168514716613,-7.705032980803892,0.25004437682387537
0.5522989590747643,-7.73031662903257,0.2870227705795189
0.6497321280757941,-7.780883925489928,0.2754670225308803
0.7586781879434661,-7.891166371030092,0.29912879234475936
0.8679440503352116,-7.9773086499197605,0.3233408358752402
0.9768901102028837,-8.087082881425179,0.37132470396292055
1.0983084685094184,-8.185295243640095,0.4075327145153215
1.182949536547512,-8.282491177785518,0.45540652785968144
1.316520390768836,-8.381211754035181,0.4797286261334827
1.3893287654162139,-8.442070384696171,0.5280426584511241
1.4749292410265276,-8.443086812765666,0.5775672929452895
1.536224724807263,-8.43088967593173,0.6634099927351763
1.6102057087095765,-8.38324461017417,0.7258110321978248
1.7079586802346796,-8.396585228586288,0.7753356666919903
1.7685079581259102,-8.45769796626465,0.7993276007358304
1.8403569252010676,-8.603809501254501,0.7855707578207844
1.9113530855453629,-8.83403045899503,0.7702731484992533
2.006441036036521,-9.10109693425474,0.7426494079258411
2.064538494576522,-9.391922415638884,0.6898231311320646
2.122742553957881,-9.670423706680408,0.6493229855901693
2.1563218189855884,-9.959470438942937,0.6566966533926339
2.1658092938664324,-10.212433974738408,0.6401884418945788
2.138732680161551,-10.439986808796514,0.6477822191836842
2.1122956715048167,-10.619513416571,0.6562564344193524
2.0246697799087046,-10.785318245407309,0.6762863977036594
1.9132719006898034,-10.890264443582627,0.7090827112131289
1.8396107193115632,-10.899285242699392,0.7805082396280475
1.7666957438228277,-10.8480826786986,0.8530343154761698
1.7188319660531752,-10.737037912106315,0.9512031465179378
1.6958061843198902,-10.59105343062515,1.0140444049538677
1.697085394416184,-10.469082062285798,1.1130936739421986
1.6861055077563305,-10.34723774745513,1.1877107899134078
1.686958314487193,-10.262111896634957,1.237675643380855
1.6877045203766974,-10.188674968613972,1.3116324308921419
1.6639325327539078,-10.114348666032178,1.3973650759387084
1.6402671459724762,-10.02782522661645,1.495423852237156
1.580037670605319,-9.928469382823351,1.5931524643056425
1.5807838764948234,-9.854016026732872,1.7155333388778913
1.5811036790188968,-9.81640818816157,1.8009358196944967
1.5565854855066028,-9.814121225005207,1.8853478078212187
1.5803574731293923,-9.873963427596703,1.9330015116789379
1.530361678532584,-9.956294101225767,1.967118482108252
1.5054170816548587,-10.00381211347464,1.9659078799317278
1.4682133880209862,-10.038751828363516,1.976803299520444
1.4311162952284717,-10.073310382726334,2.012020817382962
1.4062782991921041,-10.09465537218572,2.1202046300668833
1.3692878072409473,-10.117397950240662,2.143536235650801
1.3569221096434425,-10.129849194091971,2.1067779513817984
1.3925267906569478,-10.226663967711334,2.1176733709705147
1.415872374914306,-10.334659450095135,2.152340615116431
1.5124527371844734,-10.456376711417114,2.187778242465589
1.5969872043812092,-10.566532103448592,2.1870078592623465
1.704973856676661,-10.76041575770469,2.2334509609435416
1.7888687188252501,-10.93054040583635,2.231580030307095
1.8854490810954174,-11.066360606622567,2.157843352282449
1.970090149133511,-11.164954129363545,2.1330810350353664
2.0178473260618057,-11.273076665256035,2.192290486941724
2.0787164064771098,-11.296962724889157,2.2773628035283684
2.041619313684595,-11.332664760830156,2.2520502125646837
2.0412995111605214,-11.36976438536671,2.1908597752785592
1.9913037165637133,-11.451205684434964,2.273400832768835
1.9410947202841893,-11.542557157180793,2.4646759766596342
1.8545348371016552,-11.611547212397738,2.522784881132788
1.7437765629309006,-11.65601594043813,2.580893785605942
1.6330182887601457,-11.699722347426396,2.6754308101181383
1.5341993088214647,-11.768712402643343,2.721213583339411
1.4852695226382342,-11.767314814047788,2.7326592766447293
1.4850563209555188,-11.779384897373037,2.7324391671580885
1.4723708208339403,-11.814197558753227,2.7799828162724873
1.4473196231148573,-11.861080303458666,2.8150902793916845
1.3980700344075534,-11.883568774496235,2.838201775488962
1.3493534499070385,-11.87251511924048,2.7288073606285166
1.337307554833607,-11.86247789205422,2.6078571977194325
1.312256357114524,-11.909106529742287,2.65507068260387
0.7989733059767147,-11.814197558753227,2.60114385837689
0.6902404477917582,-11.726149477233257,2.04448696666247
1.4614975350154447,-11.755371784231226,2.066828079556505
1.9510085985304646,-11.77442981053425,2.2912297011867344
2.210475046395351,-11.594013828198957,1.9834065841196662
2.3229389340278304,-11.408261598498818,1.7705607105380752
2.434230212405374,-11.301028437167135,1.8587145599376897
2.521323099794697,-11.183249834614449,1.8379142134501403
2.645513079976535,-11.045777938215302,1.6364039784305469
2.6713104835851227,-10.941594061092104,1.4570147468183476
2.843684044060686,-10.847447411155166,1.557934946443125
2.5264399401798716,-10.729287648076417,1.7008960580162824
2.256846412385994,-10.7632109348958,1.4908015530177006
2.440839464569558,-10.729922915619852,1.5665192164221136
2.7345247825102983,-10.732845146319649,1.7642875901688142
3.0175500163152584,-10.619767523588374,1.7339124810123927
3.3616575322182385,-10.506054633313664,1.8133720056896983
3.53413769353516,-10.39856736496461,1.9871484453925587
3.6211239800831247,-10.279645280833739,2.0268782077312113
3.671332976362649,-10.160469089685497,2.029739631057541
3.672185783093511,-10.087540375699259,2.0794843750383474
3.5873315133727024,-10.001652203826964,2.067708517503068
3.526995437164187,-9.929104650366785,2.0197246494153878
3.490751151102535,-9.880189049522357,2.020164868388669
3.4054704780162948,-9.842835317968431,1.9832965293763458
3.332129099162128,-9.829621753065,1.9583141026426225
3.2841587205511176,-9.744114741718766,1.9713005623544257
3.2360817410987495,-9.658480676863846,1.9963930438314696
3.1880047616463814,-9.572973665517612,2.0092694487999525
3.1890707700599594,-9.476794159441685,2.0110303246930785
3.201862871022896,-9.416570796324129,2.036563025143404
3.2517520647783464,-9.33322369462557,2.0508701417750514
3.289275560936292,-9.261311408708828,2.088949082963899
3.363149943997248,-9.227134014872071,2.078493882348464
3.424552028619341,-9.202866794712888,2.1645566916249916
3.4003536376311203,-9.177201985958147,2.225196855194514
3.3878813391922575,-9.187239213144407,2.3094987885779155
3.2900217668257965,-9.172373952628048,2.3447163064404335
3.1918423919352623,-9.19435420963087,2.330849408782067
3.069038222691076,-9.214936878038136,2.3650764339547012
2.9832245453980466,-9.224719998207021,2.375751744056777
2.8847253679834393,-9.271094528877713,2.349338605659889
2.7992314932144833,-9.257753910465595,2.3121401024176045
2.7625608037874,-9.25762685695691,2.2752717634052813
2.7015851225307377,-9.23272436925429,2.250619500901519
2.702011525896169,-9.19714938682198,2.22706778583096
2.7267429210911787,-9.173898594732291,2.2157321472689624
2.763946614725051,-9.1390859333521,2.1927307059150056
2.8866441831278795,-9.118503264944835,2.1585036807423714
3.00923515068935,-9.10948246582807,2.148268589613577
3.143765412482894,-9.124347726344428,2.162025432528623
3.3275452629837425,-9.116470408805846,2.1646667463683116
3.4860607140827917,-9.179743056131885,2.1899793373319962
3.608331879120189,-9.194100102613495,2.215622092525642
3.718343947401439,-9.207440721025613,2.2774728582716888
3.779319628658101,-9.231834994693484,2.3384431860711725
3.839762305707974,-9.290914876232858,2.459173239493616
3.826757003062322,-9.34847011566799,2.5790228549694962
3.740303720721146,-9.405008927033627,2.6614538577164515
3.629545446550391,-9.449223548056644,2.7317788386981663
3.4823296846352685,-9.469679162955222,2.741463656110359
3.3476928220003668,-9.467519253307547,2.6911686384129507
3.2626253505968417,-9.406152408611808,2.654740518373909
3.2629451531209153,-9.382774563013433,2.618862672051469
3.275737254083851,-9.33525655076456,2.6078571977194325
3.3132607502417972,-9.264487746425997,2.5854060300820776
3.350784246399743,-9.193210728052689,2.5872769607185235
3.4005668393138357,-9.121171388627257,2.637682033159252
3.450136230545213,-9.061583293053136,2.675650919604779
3.523904012764811,-9.025754203603451,2.7500479260893473
3.5856258999109776,-8.97772797731983,2.8243348778305957
3.647241186215786,-8.941898887870146,2.886405753063283
3.7454205611063203,-8.919156309815204,2.9365907160173705
3.843386734314139,-8.908229708068136,2.998661591250058
3.978130197790399,-8.898192480881878,3.061172685456027
4.063624072559355,-8.923222022093181,3.110367155720231
4.160950640719027,-8.972645836972358,3.1592314617544743
4.233865616207762,-9.0214343843081,3.2077656035587565
4.318933087611287,-9.082801229003836,3.2441937235977982
4.404000559014812,-9.132097990374325,3.2808419531234807
4.476702332820832,-9.204899650851877,3.3289358759544814
4.549404106626851,-9.265758281512866,3.377249908272123
4.622105880432872,-9.338941102516477,3.413237809337883
4.6463042714210925,-9.363081269166974,3.4373397981250435
4.645344863848872,-9.446682477882906,3.460011075249039
4.5836229767027055,-9.493438169079658,3.458360254099234
4.497276295202887,-9.552009836584286,3.431837060959025
4.4352346055326475,-9.623668015483656,3.3813219337749763
4.323623524631031,-9.754279022413712,3.3289358759544814
4.260409225705854,-9.94701919509163,3.2277955668430636
4.2701099022694144,-10.188802022122658,3.1630833777706875
4.303689167297121,-10.479246342980744,3.0978209149817095
4.33620242391125,-10.86612427693213,3.018691554534365
4.380974777281527,-11.252493996848768,2.976100368869383
4.388010432811142,-11.734153848280526,2.9311980335946726
4.359121604803177,-12.130052581348677,2.9357102780708075
4.292815881478626,-12.596974225772763,2.9506777231623778
4.178539779543064,-12.95424869220012,2.9788517374523917
4.028658996593996,-13.227159628859422,2.984024310388449
3.8430669317900654,-13.39055044103068,3.0147295837748316
3.6096110892164823,-13.457888800634699,2.986115350511536
3.3648555574589727,-13.452933713795913,2.9463855881728835
3.1090135382002515,-13.328294221774136,2.8724288006615963
2.877689712453824,-13.216487134129729,2.7865861008717094
2.65883818514626,-13.08155630790432,2.6648655547593827
2.501068939936715,-12.9602202071084,2.531699315341738
2.367604686556749,-12.864294808049847,2.362215010628372
2.246825933298361,-12.719834968672926,2.22992920915729
2.1134682807597525,-12.610823058219628,2.108979046248206
1.993542334232227,-12.38136442153122,2.026768152987891
1.849311395875123,-12.138946326956756,1.9564431720061761
1.7422841511518912,-11.847993792063923,1.9601850332790687
1.659561898258238,-11.582197851891083,1.93960479627816
1.6012512380355213,-11.31729128627905,1.8951426799767315
1.567138968801025,-11.076906047843574,1.8506805636753028
1.5691643847868233,-10.898014707612523,1.7812360206401507
1.5585043006510433,-10.766514326121658,1.7351230831889168
1.6085000952478516,-10.67236767618472,1.6890101457376827
1.6211855953694299,-10.63755501480453,1.641466496623284
1.658602490686018,-10.579237454317276,1.5945831759688072
1.683120684198312,-10.593594500798886,1.497845056590204
1.7202177769908265,-10.559544160470818,1.4385255499405258
1.793772357527709,-10.56144996310112,1.4274100208651688
1.9034646232848855,-10.612525473593225,1.4038583057946101
2.0132634898834203,-10.651276793742706,1.392522667232612
2.1347884490313125,-10.738181393684496,1.3927427767192528
2.2194295170694063,-10.836266702390725,1.3920824482593308
2.3528937704493726,-10.946422094422203,1.4525025023422127
2.449687334402255,-11.043999189093686,1.4883803486646525
2.546480898355138,-11.15351931358173,1.5362541620090124
2.6429546597839475,-11.287560765246333,1.5593656581062896
2.715016828541821,-11.408896866042252,1.5823670994602463
2.7746066988608313,-11.566824377339977,1.5682800923152393
2.821724270740979,-11.736186704419517,1.5658588879621913
2.831957951511328,-11.917110900789556,1.53856531161874
2.8669230274766866,-12.086981441903843,1.4997159872266503
2.8774765107711087,-12.244146632149446,1.4606465533479198
2.888136594906889,-12.389877006613236,1.3976952401686695
2.8744916872130903,-12.52264792319097,1.3467398940113393
2.836754989372429,-12.619335643301644,1.271792613810169
2.8117037916533456,-12.680321327471322,1.1978358262988817
2.7499819045071794,-12.728093446737569,1.1355448415795537
2.676427323970297,-12.740290583571504,1.037486065281106
2.640076437067287,-12.717039791481815,0.9526338581811026
2.5543693606156155,-12.716912737973127,0.8546851366259753
2.5180184737126052,-12.693916052900812,0.7577269077607315
2.4453166999065856,-12.63356563627457,0.6852008319126092
2.3604624301857764,-12.560891029305704,0.6126747560644868
2.2635622653915357,-12.463568041651596,0.5525848662115661
2.1670885039627263,-12.330543018056488,0.4810492830533271
2.0456701456561914,-12.244781899692882,0.4204091194838045
1.961562081824887,-12.099559739263839,0.37341574408600753
1.8280978284449207,-11.989277293723674,0.3251017117683661
1.7561422605284054,-11.856760484163313,0.25389629284008824
1.6348305030632284,-11.75803990791365,0.2417902710748478
1.5625551326226397,-11.64839272991692,0.23067474199949065
1.4781272662672615,-11.526802522103626,0.20745319115889307
1.4062782991921041,-11.380818040622463,0.20910401230869857
1.3217438319953683,-11.270789702099671,0.20987439551194115
1.262047360835,-11.12467816710982,0.2359573696788683
1.202244288833274,-10.990128501410473,0.2859222231463152
1.1298623175513274,-10.891789085686868,0.3109046498800387
1.0946840399032534,-10.745804604205706,0.36141977706408746
1.0714450564872529,-10.623706182357665,0.43592683829197637
1.011535383644169,-10.500972492966191,0.497777604038023
1.0005554969843153,-10.379890499187646,0.536076654713511
0.9894690094831041,-10.271132695751723,0.5500536071151977
1.0029007154941871,-10.162628999333172,0.588462712534006
1.0286981191027749,-10.043198701167556,0.5788879498651339
1.054708724394078,-9.899247075825382,0.5939654497000243
1.0929784264415285,-9.768890175912698,0.5484027859653922
1.1068365358180425,-9.625319711096584,0.5269421110179204
1.144999637024135,-9.494708704166527,0.493595523791849
1.183589141595659,-9.32763334024335,0.4729052320476199
1.2218588436431093,-9.197276440330667,0.42734256831298767
1.2474430455689813,-9.102621576358981,0.3810095213751129
1.2854995459337162,-8.984080652754171,0.3353368028971603
1.3115101512250196,-8.852961431789367,0.31376607320636823
1.36139934498047,-8.770630758160303,0.27964910277705424
1.411714942101352,-8.651962781046809,0.25829848257290294
1.4497714424660868,-8.533167750424626,0.23683780762543125
1.47578204775739,-8.40166736893376,0.22737309969987962
1.5138385481221248,-8.282110017259457,0.24223049004812924
1.5396359517307125,-8.16229855856778,0.25686777090973817
1.5898449480102366,-8.042232992858729,0.30804322655370914
1.6273684441681824,-7.969558385889864,0.38255028778159805
1.6647853394847703,-7.897137885938373,0.44484127250092614
1.7022022348013583,-7.837422736855565,0.47070413718121257
1.726933629996368,-7.813282570205068,0.5077925856801765
1.7512386218259466,-7.82560676054769,0.5200086621887373
1.8001684080091769,-7.82598792107375,0.5569870559443808
1.8004882105332503,-7.802228914949314,0.5453212531524219
1.8251130048869022,-7.79117525969356,0.5216594833385427
1.7886555171425345,-7.766526879008316,0.509443406829982
1.7644571261543138,-7.742640819375192,0.473235396277581
1.7526244327635978,-7.7063035158907605,0.47378566999418287
1.728532642616735,-7.670220319423701,0.44990379069366304
1.7042276507871565,-7.657896129081079,0.4376877141851022
1.691648751506936,-7.682036295731576,0.4128153421946992
1.6546582595557793,-7.70554119483864,0.3998288824828958
1.6422925619582744,-7.717230117637827,0.3993886635096143
1.6053020700071177,-7.740480909727516,0.3985082255630514
1.5684181788973186,-7.751407511474584,0.4098438641250492
1.5194883927140883,-7.749882869370341,0.4333955791956079
1.5192751910313727,-7.76157179216953,0.4452814914742076
1.457659904726564,-7.795622132497599,0.4800587903634438
1.4450810054463434,-7.81798355002648,0.5521446472382846
1.4078773118124712,-7.850890408776369,0.6721043174574854
1.3460488238249468,-7.895740297342818,0.767191615686283
1.3088451301910744,-7.9286471560927065,0.8871512859054839
1.247123243044908,-7.962189282386029,0.9461406283252008
1.2223918478498983,-7.984296592897536,1.018006375713401
1.20970634772832,-8.019109254277726,1.0656600795711202
1.1729290574598787,-8.017584612173485,1.1014278711502397
1.1485174647889425,-8.004752207796114,1.1134238381721597
1.0874351826909228,-7.991538642892685,1.100657487946997
0.9904284170553244,-7.905015203476957,1.1129836191988782
0.9299857400054515,-7.831959435982031,1.0893218493849992
0.8449182686019268,-7.782662674611543,1.0526736198593167
0.8214660835032106,-7.686356115026928,1.0298922879920007
0.7607036039292643,-7.649383543999062,1.005460134974879
0.7860746041724208,-7.565782335283131,1.0073310656113252
0.811125801891504,-7.518518430051631,0.9964356460226089
0.8361769996105871,-7.458549173951449,1.0220784012162547
0.8853199874765331,-7.447114358169634,1.0471708826932984
0.9343563745011213,-7.435552488879133,1.0843693859355827
0.9714534672936359,-7.399469292412075,1.1340040751730684
0.99597166080593,-7.399088131886014,1.1827583264639914
1.0695262413428124,-7.387272155578139,1.2566050592319582
1.1302887209167587,-7.424117673097319,1.293033179271
1.2034168980882098,-7.448384893256503,1.3662195835790443
1.2757988693701563,-7.545580827401925,1.4018773204148434
1.3853845342859752,-7.595385802807161,1.4387456594271666
1.4580863080919952,-7.668060409776025,1.4989456040234077
1.5551996745689514,-7.7414973377970115,1.5474797458276899
1.6406935493379073,-7.754329742174381,1.6088902926004551
1.6891969321557065,-7.790285885132753,1.6694204014266572
1.7747974077660205,-7.803626503544869,1.7067289594122619
1.811361496351746,-7.815061319326683,1.7796952542336657
1.8479255849374716,-7.827512563177993,1.8041274072507874
1.8720173750843345,-7.863341652627677,1.8401153083165476
1.884063270157766,-7.874522361392119,1.9006454171427498
1.8719107742429766,-7.8613087964886885,1.9490695042037116
1.8715909717189032,-7.884940749104438,1.972841328760911
1.8712711691948298,-7.908191541194127,2.0087191750833506
1.8699919590985363,-8.028384160411864,2.0065180802169436
1.904957035063895,-8.185295243640095,2.016312952372456
1.93960230850518,-8.378670683861445,2.001235452537566
1.9488765817033087,-8.655774386307414,1.9721810003009888
1.9338458630718587,-8.909119082628944,1.9069185375120108
1.894190350086757,-9.185587517531479,1.8529917132850307
1.8671137363818757,-9.426353916493014,1.799835272261293
1.8274582233967738,-9.69151458912242,1.7098104922252322
1.800701412215966,-9.908267874942146,1.6570942701747762
1.7613657017549376,-10.148780166886308,1.603827774407718
1.7345022897327718,-10.365025238671286,1.575323595887743
1.7202177769908265,-10.557511304331829,1.5474797458276899
1.6818414741020185,-10.70031944809582,1.5686102565452005
1.656363873017504,-10.783285389268318,1.6030573912044757
1.6433585703718523,-10.854181247115568,1.6499407118589522
1.6673437596773575,-10.89013739007394,1.6859286129247124
1.727466634203157,-10.986952163693301,1.7213662402738708
1.8121077022412506,-11.083258723277915,1.8176641406791925
1.897388375327491,-11.119596026762348,1.902846512009157
2.018700132792668,-11.216919014416456,1.9875886643658403
2.0668837130863937,-11.275871842447144,2.1082086630449632
2.115920100110982,-11.262658277543714,2.2301493186439307
2.1654894913423592,-11.201799646882725,2.32875836865898
2.1781749914639374,-11.152121724986175,2.426597035470787
2.178921197353442,-11.078430689947815,2.5126598447473145
2.2036525925484516,-11.041585172428636,2.58628646802864
2.19160669747502,-11.02862571454258,2.622714588067682
2.215805088463241,-11.052765881193077,2.6468165768548424
2.1910736932682315,-11.063692482940144,2.6704783466687214
2.1781749914639374,-11.122645310970832,2.717581776809839
2.1532303945862123,-11.157585025859708,2.7408033276504367
2.140651495305992,-11.179819389879903,2.824995206290518
2.1157068984282663,-11.226575081076655,2.860102669409715
2.1272197892949087,-11.28565496261603,2.931858362054595
2.1142144866492574,-11.34448073713803,2.978961792195712
2.0890566880888164,-11.403179458151344,3.025955167593509
2.075731582919091,-11.499486017735958,2.999872193426582
2.050253981834577,-11.595792577320573,2.9614630880077737
2.000471388920484,-11.667450756219942,2.923164037332286
1.9751003886773275,-11.752195446514056,2.8607629978696374
1.9502623926409601,-11.788532749998488,2.811348418118792
1.9256375982873082,-11.813435237701107,2.737941904324107
1.901119404775014,-11.813562291209793,2.7012936747984244
1.8527226227985725,-11.765790171943546,2.6288776536936225
1.7674419497123321,-11.74165000529305,2.5312590963684567
1.6941005708581653,-11.729961082493862,2.42153451727805
1.6080736918824203,-11.765917225452233,2.3229254672630004
1.5216204095412442,-11.836813083299482,2.284076142870911
1.4355935305654992,-11.886618058704718,2.088398809247297
1.3493534499070385,-11.947984903400455,1.916603354924203
1.2511740750165044,-11.985719795480442,1.7088199995353488
1.2019244863092005,-12.023708794577804,1.5501210596673787
1.1154712039680243,-12.095239919968487,1.475063724722888
1.0418100225897842,-12.119380086618984,1.3767848389377997
0.9799815346022599,-12.1799846102626,1.2779556794361095
0.9064269540653775,-12.191419426044414,1.2162149684333832
0.857603768723505,-12.179222289210479,1.1673506623991399
0.8340449827834311,-12.094985812951114,1.144349221045183
0.7740287090989894,-11.984322206884887,1.2059798773045889
0.7511095282070622,-11.83973531399928,1.1961850051490763
0.7775465368637968,-11.673422271128224,1.126960571600565
0.8393750248513211,-11.600366503633298,1.2501118293760565
0.950559702387507,-11.504949318609492,1.3502616457975911
1.0743232792039135,-11.386408395004683,1.4145336158966857
1.2347575454474031,-11.269773274030177,1.4189358056295005
1.4200298077272604,-11.129252093422547,1.4482103673527182
1.629713662678054,-10.988857966323604,1.5021371915796984
1.7906809331283327,-10.823053137487296,1.5678398733419578
1.914977514151528,-10.656231880581492,1.6452083578961765
2.03895429265065,-10.513423736817499,1.7221366234771134
2.1503521718695517,-10.394374599177944,1.7985146153414486
2.249490954332306,-10.286760277320202,1.8865584099977426
2.3973463212955752,-10.192867734400638,1.9508303800968374
2.47175370856332,-10.109647686210765,1.9896797044889272
2.6074565796118,-10.015628089782515,2.0416255433361408
2.7552053457337116,-9.946638034565568,2.057033207400992
2.8786491200260445,-9.853507812698124,2.0483388826786832
3.014138789391809,-9.784517757481177,2.0515304702349737
3.149841660440289,-9.704601100517165,1.9943020037083827
3.2489804429030436,-9.599781955850531,1.9370735371817915
3.3355403260855776,-9.530537793616212,1.8910706544738778
3.434572507706974,-9.437534625257454,1.8457281002258863
3.5085534916092875,-9.391795362130198,1.8112809655666111
3.6079054757547575,-9.27401675957751,1.8026966955876225
3.669733963742282,-9.215826252598943,1.7804656374369083
3.694891762302723,-9.156492264042194,1.7697903273348325
3.7325218593020266,-9.085723459703633,1.7473391596974777
3.6963841740817323,-9.024737775533957,1.7479994881573997
3.6849778840564476,-8.952571382599839,1.736994013825363
3.6116365052022807,-8.939611924713782,1.699905565326399
3.5635595257499126,-8.867572585288352,1.640035784960119
3.4783854535050303,-8.818911091461297,1.5670694901387152
3.4305216757353776,-8.72235042485931,1.5318519722761976
3.394490591356441,-8.66187295472438,1.5081902024623186
3.310062725001063,-8.540663907437148,1.4607566080912402
3.2867171407437046,-8.444357347852534,1.437975276223924
3.263264955644989,-8.347415520724486,1.4515120096523293
3.2517520647783464,-8.274613860246934,1.476934655359334
3.301108254327008,-8.238530663779876,1.5387854211053809
3.3132607502417972,-8.237133075184321,1.6236376282053844
3.3376723429127333,-8.2363707541322,1.696603923026788
3.3618707339009544,-8.259494492713202,1.7691299988749103
3.3985414233280373,-8.258605118152394,1.8665284467134358
3.43478570938969,-8.293798940058645,1.9510504895834782
3.446191999414974,-8.364567744397208,2.0346920945069575
3.4700705878791216,-8.411196382085272,2.1430960166775197
3.493735974660553,-8.482854560984643,2.190529611048598
3.5052488655271956,-8.541680335506642,2.2743913254587182
3.5042894579549757,-8.624011009135707,2.3696987331741566
3.491284155309324,-8.681693302079525,2.4773322721414766
3.4539738608340937,-8.7292113143284,2.4639055934563916
3.404191267920001,-8.800234225684335,2.461924608076625
3.3665611709206975,-8.884343648435014,2.4115195356358963
3.341296771518899,-8.969088338729126,2.349118496173248
3.315925771275742,-9.054087136040613,2.274611434945359
3.327225460459669,-9.139594147386847,2.2126506144559923
3.2895953634603656,-9.223830623646213,2.1622455420152638
3.276590060814714,-9.296124070089018,2.136602786821618
3.263797959851778,-9.356601540223947,2.098964064606052
3.2629451531209153,-9.429022040175438,2.0855373859209676
3.2990828383412096,-9.489880670836428,2.0849871122043657
3.3107023300492098,-9.536890469050553,2.156852859592566
3.3345809185133573,-9.582756785686497,2.3016849018021697
3.3214690150263477,-9.638660329508701,2.506166614891413
3.2965244181486226,-9.671440134749902,2.650448383384415
3.222650035087667,-9.69189574964848,2.7458658458431735
3.100165668367554,-9.688719411931311,2.7684270682238488
2.977787902488799,-9.685670127722826,2.7788822688392836
2.867775834207549,-9.658861837389907,2.7898877431713207
2.758083568450372,-9.608040433915177,2.8014434912199593
2.6857015971684257,-9.510336285735006,2.8021038196798815
2.686554403899288,-9.43816989280089,2.8034244765997256
2.675361315556719,-9.341736279707588,2.8050752977495312
2.725037307629454,-9.270078100808218,2.8433743484250193
2.750195106189895,-9.210235898216723,2.8569110818534247
2.824495892616282,-9.139340040369474,2.883434274993633
2.8736388804822277,-9.115708087753724,2.920852887722558
2.959559158616615,-9.092711402681408,2.970817741190005
3.0576319326657915,-9.082293014969089,3.0086765728922114
3.1311865132026737,-9.071493466730708,3.0340992185992164
3.228726283045061,-9.108593091267261,3.095289655885341
3.326159452046091,-9.158398066672497,3.1200519731324237
3.422846415157616,-9.268172298177916,3.1557097099682228
3.5317924750252883,-9.390651880552015,3.167155403273541
3.628479438136813,-9.50055316556612,3.1907071183440996
3.7002218043706128,-9.658226569846471,3.2009422094728937
3.797228570006211,-9.743606527684019,3.2491461870472147
3.8447725452517902,-9.876758604787813,3.25960138766265
3.856392036959791,-9.924403670545374,3.2951490697551287
3.855859032753002,-9.971540522268185,3.3426927188695275
3.8432801334727813,-9.994664260849188,3.378460510448647
3.7945635489722664,-9.969253559111824,3.3903464227272466
3.745740363630394,-9.955912940699706,3.4020122255192056
3.68487128321509,-9.918050995111033,3.4260041595630457
3.6485203963120796,-9.894037881969222,3.3774700177587635
3.6114233035195653,-9.930629292471028,3.303733339734117
3.5977783958257668,-10.06467074413563,3.192247884750585
3.6198447699868312,-10.295908129945653,3.0673357510819677
3.6768762201132548,-10.696380789326529,2.9277863365517414
3.769832153777257,-11.15720386533365,2.8240047136006345
3.861508877344965,-11.737457239506384,2.754340061078842
3.9409265041565265,-12.316567132100937,2.73287938613137
3.9832470381755734,-12.917657281698313,2.771068382063538
3.9896430886570413,-13.446326931344197,2.785815717668467
3.9232307644911315,-13.91299446875091,2.8128891845252775
3.7849694732500643,-14.23443984572858,2.8050752977495312
3.6363679003972904,-14.388047537730953,2.763914823747714
3.4158107596280014,-14.407740831577412,2.7241850614090612
3.221264224150015,-14.284753035168563,2.6390026900790966
3.0283167012923964,-14.018194773943602,2.520033512549779
2.8974108681050175,-13.680359494345332,2.42747747341735
2.8276939178570157,-13.357516528772106,2.2629456321534
2.8060539470613826,-13.10836459823724,2.0613253423904867
2.784413976265749,-12.87090159050156,1.8838070414147334
2.786545993092905,-12.693407838866065,1.741836422531459
2.7521139213343355,-12.491519813562698,1.5755437053743837
2.7429462489775647,-12.230043692685209,1.4106816998804728
2.746464076742372,-11.919143756928545,1.3315523394331286
2.701691723372096,-11.53429867911615,1.2895114274847481
2.607989583818589,-11.148183066216884,1.2588061540983655
2.4771903514725677,-10.797769489258616,1.2027882897482982
2.2979943371501053,-10.39856736496461,1.122778491354391
2.155042608889295,-10.03621075818978,1.042548583473843
2.0113446747389796,-9.745385276805635,0.9973160839691718
1.9159369217237483,-9.514783158539045,1.0001775072955015
1.8564536522460955,-9.357872075310816,0.9658404273795467
1.881291648282463,-9.322170039369817,0.9789369418346705
1.9543132246125565,-9.35965082443243,0.991373127829872
2.0387410909679344,-9.481495139263098,1.0024886569052291
2.1348950498726706,-9.639295597052135,1.0372659557944652
2.2680395007285634,-9.785661239059358,1.0849196596521846
2.4138694517060344,-9.884000654782962,1.1457799327083478
2.5226023098909907,-10.004574434526761,1.2539637453922692
2.6442338698802414,-10.077630202021686,1.3512521384874743
2.7654390265040605,-10.187658540544478,1.399346061318475
2.9112689774815315,-10.286506170302829,1.435884236100837
3.0443068274960665,-10.4333800263448,1.4593258964280753
3.189923576790822,-10.557130143805768,1.446999765176194
3.286184136536916,-10.716074083172987,1.4213570099825485
3.382871099648441,-10.839188933090522,1.3841585067402642
3.4429939741742404,-10.949598432139375,1.3346338722460989
3.5154825462975445,-11.036375978572476,1.2856595114685352
3.575605420823344,-11.14754779867345,1.1997067569353281
3.6480939929466483,-11.247030695975235,1.1143042761187227
3.7326284601433843,-11.371161973962264,1.004249532798355
3.792218330462395,-11.530868234381604,0.8933143515314245
3.839655704866616,-11.678250304458324,0.7823791702644938
3.911717873624489,-11.814451665770601,0.659998295692245
3.898392768454764,-11.923717683241271,0.5851610702343949
3.824091982028377,-12.008335320026697,0.4736756152508625
3.737638699687201,-12.07986644541738,0.3986182803063717
3.602788635369583,-12.102481969963636,0.3115649783399609
3.4804108694908282,-12.101465541894141,0.21306598306823182
3.3702922003682203,-12.087235548921218,0.19974935912646732
3.248340837854897,-12.048992442806481,0.16233074639754233
3.0775662899997003,-11.985719795480442,0.12480207892529695
2.8214044682169055,-11.896020018347544,0.11071507178028989
2.5779281465556894,-11.758675175457084,0.08562259030324605
2.334345224053115,-11.645597552725809,0.04787381334435994
2.1516313819658452,-11.557549471205839,0.03488735363255655
1.9937555359149426,-11.43418051427093,0.010675310102075664
1.8357730890226822,-11.322119319609149,0.022561222380675372
1.7147811340815788,-11.187442600401113,0.011225583818677503
1.5942155825059063,-11.016301524199958,0.012546240738521916
1.4365529381377193,-10.868284186579805,0.02509248147704383
1.2543721002572383,-10.732082825267527,0.012986459711803386
1.108648750121125,-10.620656898149182,0.012876404968483019
0.93830060563136,-10.520792840321336,0.00022010948664073535
0.7677392594588791,-10.432363598275305,0.02366176981387905
0.646001098628271,-10.368963897440578,0.04721348488443773
0.5118972402001579,-10.305055982571105,0.08287122172023687
0.439728470600927,-10.182322293179631,0.1323958562144023
0.3915448903072012,-10.108377151123898,0.16937424997004585
0.4049765963182841,-10.000127561722723,0.1957873883669341
0.430667399085514,-9.878791460926802,0.28306079981998566
0.5419586774630577,-9.771558299595121,0.3712146492196002
0.652930153316528,-9.701043602273932,0.42239010486357115
0.7885264235236502,-9.619729356714364,0.43790782367174297
0.9486408872430666,-9.539685646241663,0.41743764141415457
1.1083289475970517,-9.494708704166527,0.4446211630142854
1.207041326694375,-9.4245751673714,0.4593684986192147
1.294134214083698,-9.306796564818711,0.43856815213166517
1.3561759037539378,-9.236535974514895,0.4164471487242713
1.4556344887407657,-9.094363098294338,0.43251514124904494
1.5792914647158143,-8.989162793101645,0.4240409260133767
1.7030550415322208,-8.871765351075018,0.4278928420295895
1.8391843159461319,-8.742678986249203,0.4320749222757635
1.9755267920427588,-8.601522538098138,0.43658716675189857
2.1605858526399,-8.47256322678101,0.4898536625189565
2.284242828614949,-8.367108814570944,0.49348546904852864
2.4078998045899977,-8.249330212018256,0.5215494285952225
2.531023776358257,-8.192156133109185,0.5121947754129912
2.604898159419213,-8.158105792781114,0.5017395747975563
2.7033973368338207,-8.112874743688604,0.46762260436824227
2.740494429626335,-8.090386272651036,0.43229503176240425
2.7776981232602074,-8.043884688471657,0.3972976233865273
2.8028559218206484,-7.997891318327026,0.31376607320636823
2.8032823251860797,-7.9620622288773415,0.30232037990105
2.790810026747217,-7.973624098167843,0.313986182693009
2.7787641316737854,-7.962189282386029,0.26567215037536757
2.766185232393565,-7.9989077463965215,0.21636762536784285
2.753926135637418,-7.998653639379148,0.21625757062452247
2.7286617362356194,-8.071201192839325,0.16618266241375518
2.7043567444060406,-8.045155223558526,0.23892884774851822
2.643274462308021,-8.031814605146408,0.23826851928859602
2.5826185835754325,-7.983026057810668,0.20206050873619505
2.521003297270624,-8.015805863051868,0.29736791645163346
2.471220704356531,-8.073106995469628,0.3803491929151907
2.4216513131251536,-8.132186877009001,0.3785883170220648
2.3590766192481247,-8.250473693596437,0.3998288824828958
2.308334618761812,-8.404970760159618,0.4326251959923653
2.2704913200797927,-8.49937151711393,0.47884818818691977
2.2449071181539204,-8.594280488102989,0.5130752133595541
2.195124525239828,-8.664541078406804,0.5474122932755088
2.1457683356911663,-8.699226686278308,0.5581976581209048
2.096092343618431,-8.757036032730813,0.6169668910539812
2.0467361540697695,-8.778635129207574,0.6885024742122202
1.973288174374245,-8.77596700552515,0.7359360685832986
1.8753220011664262,-8.773044774825353,0.7709334769591756
1.7775690296413231,-8.745982377475059,0.8184771260735744
1.692181755713725,-8.706976950308205,0.8663509394179343
1.619479981907705,-8.632523594217723,0.9029991689436168
1.5466716072603273,-8.57026737496118,0.927321267217418
1.4617107366981603,-8.495559911853325,0.9637493872564598
1.3890089628921405,-8.421487716288905,0.9761855732516613
1.3041546931713313,-8.3472884672158,0.988401649760222
1.2560777137189632,-8.261273241834818,1.0256001530025063
1.2199400284986688,-8.200414611173828,1.0261504267191082
1.1960614400345215,-8.151753117346773,1.02670070043571
1.1598171539728694,-8.103345730537093,1.0029288758785107
1.1844419483265214,-8.091783861246592,1.0034791495951125
1.208533738473384,-8.129137592800518,0.96683092006943
1.2447780245350364,-8.178434354171007,0.9421786575656677
1.2565041170843945,-8.227604062032809,0.9052002638100242
1.2563975162430365,-8.23954709184937,0.9049801543233834
1.2441384194868896,-8.239292984831996,0.9047600448367427
1.2324123269375316,-8.19075854451363,0.9176364498052256
1.2450978270591098,-8.15467534804657,0.9305128547737087
1.2088535409974577,-8.105378586676082,0.955165117277471
1.2217522428017515,-8.04502817004984,0.980587762984476
1.2099195494110355,-8.008436759548033,0.9932440584663182
1.247123243044908,-7.961172854316533,0.9945647153861626
1.2595955414837707,-7.937032687666036,1.0194370873765657
1.2846467392028538,-7.8892605683997905,1.0327537113183303
1.3460488238249468,-7.866136829818788,1.0581763570253353
1.3832525174588193,-7.830943007912537,1.0593869592018592
1.4200298077272604,-7.819254085113349,1.0842593311922624
1.4568070979957015,-7.8193811386220355,1.1211276702045856
1.5058434850202898,-7.808073376348908,1.1462201516816293
1.5427273761300888,-7.796257400041033,1.1831985454372729
1.6039162590694662,-7.796638560567094,1.2325030704447977
1.6279014483749714,-7.832340596508092,1.2805969932757983
1.6636127302298345,-7.928138942057959,1.339806445182156
1.7228827980247716,-8.097374215628811,1.3618173938462297
1.7572082689419832,-8.31361928741379,1.40682978386426
1.8154123283233423,-8.591485310911878,1.402647703618086
1.8603978833763342,-8.952444329091152,1.4331328675178279
1.9052768375879683,-9.326871019191229,1.390651736596166
1.9263838041768127,-9.640566132139003,1.349051043621067
1.959856468363162,-9.94219116176153,1.33199255840641
1.9446125480489966,-10.218532543155376,1.3147139637051122
1.9179623377095465,-10.41051039478117,1.298756025923659
1.8186103535640765,-10.540994348202542,1.2708021211202856
1.6949533775890278,-10.646575813921293,1.255064292825473
1.5966674018571358,-10.681261421792797,1.2046592203847446
1.4748226401851698,-10.632981088491803,1.070722597763857
1.4385783541235178,-10.59626262448131,1.058726630741937
1.3900749713057183,-10.545949435041328,1.11947684905478
1.3413583868052037,-10.520411679795275,1.14346878309862
1.3046876973781203,-10.50618168682235,1.2157747494601017
1.29306820567012,-10.445068949143987,1.2530833074457064
1.2942408149250557,-10.337073466760184,1.2429582710602325
1.3068197142052762,-10.29997384222363,1.3163647848549178
1.3928465931810212,-10.263763592247885,1.427189911378528
1.429410681766747,-10.275706622064448,1.4758341079261306
1.5152243590597763,-10.265415287860815,1.4893708413545357
1.6006116329873743,-10.290698936089493,1.5263492351101793
1.7104104995859089,-10.313060353618376,1.745358174317711
1.7717059833666442,-10.287014384337576,1.9282691577161621
1.7839650801227913,-10.285870902759394,2.001015343050925
1.7711729791598552,-10.333007754482207,2.036342915656763
1.7452689747099097,-10.451040464052268,2.1185538089170777
1.7192583694186063,-10.582032631508387,2.15212050562979
1.69388736917545,-10.665633840224318,2.1502495749933437
1.6680899655668622,-10.784682977863874,2.171930359427456
1.667023957153284,-10.881116590957175,2.15806346176909
1.6661711504224217,-10.952774769856545,2.1810649031230467
1.665424944532917,-11.024941162790663,2.179744246203202
1.6644655369606969,-11.10828826448922,2.2145215450924383
1.6261958349132466,-11.238772217910592,2.2599741540837504
1.6003984313046589,-11.372051348523073,2.172590687887378
1.5742812251719978,-11.516384134391306,2.133301144522007
1.5354785189177582,-11.70759966496498,2.1413351407843937
1.509467913626455,-11.839100046455846,2.1507998487099456
1.472051018309867,-11.911520546407337,2.088398809247297
1.459258917346931,-11.958784451638836,2.1116203600878944
1.409476324432838,-12.028917988433964,2.15806346176909
1.372699034164397,-12.02790156036447,2.1696192098177285
1.323556046298451,-12.038574055094163,2.180844793636406
1.2377423690054215,-12.048865389297795,2.167418114951321
1.2126911712863384,-12.094985812951114,2.2388436433662395
1.1751676751283926,-12.165754617289675,2.261184756260274
1.1628019775308878,-12.1799846102626,2.1276883526126684
1.162055771641383,-12.252151003196717,2.126367695692824
1.1372177756050157,-12.287853039137715,2.1132711812377
1.1490504689957315,-12.323936235604775,2.124936984029659
1.124212472959364,-12.347187027694464,2.136272622591657
1.050977694946555,-12.335371051386588,2.0385440105231702
1.026459501434261,-12.349219883833452,1.916933519154164
1.0010885011911044,-12.43294814605807,1.9030666214957979
0.5478217237377367,-12.447432246048368,1.8601452716008544
0.8804163487740743,-12.306911065440739,1.4315921011113426
1.49177217396106,-12.406393962742523,1.3657793646057628
1.8463265723171045,-12.46140813200392,1.4302714441914983
1.7270402308377257,-12.201837813756734,1.033854258751534
1.8508038076541322,-12.083423943660613,1.0861302618287085
1.9613488801421712,-12.033746021764063,1.3064598579560847
1.9143379091033812,-11.881281811339871,1.0543244410091224
1.9900245064674196,-11.693623779009428,0.9014584025371316
2.0643252928938067,-11.59515730977714,1.1100121411292283
2.0409797086364483,-11.485128971254348,1.1842990928704766
2.1405448944646337,-11.35769430204146,1.0548747147257242
2.349908946891354,-11.240550967032206,1.1445693305318239
2.473779124549118,-11.109812906593461,1.22127748662612
2.634746394999397,-10.945405666352709,1.2144540925402574
2.8200186572792543,-10.803741004166898,1.3042587630896774
2.9319495407049447,-10.635649212174227,1.4299412799615372
3.0313015248504147,-10.504529991209422,1.494213250060632
3.130760109837243,-10.360705419375934,1.5949133401987683
3.1195670214946736,-10.25042297383577,1.693632444957138
3.0955818321891684,-10.201253265973968,1.7183947622042208
3.058911142762085,-10.200236837904473,1.7299505102528594
2.998255264029497,-10.151702397586105,1.681636477935218
2.9501782845771287,-10.067338867818053,1.6339827740774988
2.9143604018809075,-9.995934795936057,1.5501210596673787
2.9277921078919906,-9.88971806267387,1.4674699474337827
2.941437015585789,-9.771685353103807,1.3729329229215868
2.9674476208770924,-9.641201399682437,1.3151541826783937
3.0180830205220475,-9.499155576970566,1.2579257161518025
3.130013903947738,-9.346183152511626,1.2258997858455756
3.217106791337061,-9.228531603467626,1.1929934175927857
3.3528096623855412,-9.135528435108869,1.1965151693790375
3.464100940763085,-9.04138178517193,1.2240288552091292
3.5624935173363346,-8.995515468535986,1.2262299500755367
3.6610992955923,-8.93770612208348,1.2286511544285847
3.722607981055751,-8.915090597537226,1.2298617566051087
3.747659178774834,-8.867064371253605,1.2552844023121137
3.797441771688927,-8.796295566915044,1.2451593659266398
3.8714227555912406,-8.749666929226978,1.2591363183283266
3.9088396509078285,-8.677246429275487,1.321537357790975
3.9829272356514998,-8.617658333701366,1.3841585067402642
4.056908219553813,-8.569378000400372,1.482877611498634
4.1184169050172645,-8.533548910950685,1.544838431988001
4.167346691200494,-8.532913643407252,1.6423469345698467
4.204017380627578,-8.532278375863818,1.7155333388778913
4.216276477383725,-8.5189377574517,1.8006056554645355
4.215956674859652,-8.54180738901533,1.8606955453174563
4.191438481347357,-8.540536853928462,1.8966834463832165
4.166707086152348,-8.564041753035525,1.8959130631799739
4.142082291798696,-8.57509540829128,1.919574832993853
4.081000009700676,-8.561500682861787,1.9311305810424917
4.0323900260415195,-8.524019897799175,1.9432366028077321
4.008404836736014,-8.47535840397212,1.9437868765243338
3.9472159537966367,-8.473960815376564,1.942906438577771
3.9472159537966367,-8.473833761867878,1.9550124603430115
3.8977531634066174,-8.521478827625437,1.9171536286408049
3.9094792559559752,-8.570013267943805,1.9043872784156421
3.884001654871461,-8.666573934545793,1.8538721512315934
3.8462649570307996,-8.750302196770411,1.8275690675780256
3.83315305354379,-8.834157512503717,1.8259182464282202
3.832620049337001,-8.881929631769964,1.8371438302468976
3.8319804442888543,-8.941644780852773,1.8602553263441748
3.856178835277075,-8.952571382599839,1.9451075334441783
3.904788818936232,-8.988400472049523,2.017743664035621
3.9287740082417373,-9.023213133429714,2.1142616739275835
4.0017955845718305,-9.0590422228794,2.211440012279468
4.025887374718693,-9.082038907951715,2.2961821646361513
4.062451463304419,-9.093219616716155,2.381144426479475
4.074710560060566,-9.07987899830404,2.4663267978094394
4.074710560060566,-9.078481409708484,2.538962928400882
4.07503036258464,-9.04138178517193,2.6001533656870066
4.050725370755061,-9.015589922908505,2.660683474513209
4.026633580608198,-8.978236191354577,2.6973317040388913
4.002435189619978,-8.953460757160647,2.709547780547452
3.9536120042781047,-8.94012013874853,2.721213583339411
3.9295202141312418,-8.904163995790158,2.685225682273651
3.892529722180085,-8.9269065738451,2.7085572878575688
3.892636323021443,-8.914836490519852,2.7087773973442095
3.8799508228998647,-8.95091968698691,2.695790937632406
3.8675851253023596,-8.962608609786098,2.695460773402445
3.8427471292659923,-8.99818359221841,2.694470280712562
3.805436834790762,-9.045193390432535,2.7051455908146376
3.7929645363518993,-9.068952396556972,2.7045953170980357
3.755974044400743,-9.091822028120601,2.7157108461733928
3.7310294475230172,-9.127778171078972,2.6905083099530285
3.730816245840302,-9.15191833772947,2.690068090979747
3.7179175440360077,-9.211633486812278,2.688857488803223
3.7174911406705764,-9.247716683279336,2.688197160343301
3.7286842290131457,-9.344658510407385,2.662444350406335
3.7033132287699893,-9.428386772632004,2.648467398004648
3.7025670228804843,-9.501061379600868,2.6229346975543226
3.6769828209546125,-9.596351511115987,2.6329496791964764
3.6640841191503184,-9.656447820724857,2.619633055254712
3.6148345304430145,-9.679063345271112,2.6306385295867485
3.601935828638721,-9.738270280319172,2.6656359379626253
3.5284878489431963,-9.723659126820188,2.7132896418203445
3.4675121676865346,-9.697104943504641,2.7733795316732652
3.3951301964045877,-9.598765527781037,2.7983619584069888
3.297910229086274,-9.52418511818187,2.810467980172229
3.2372543503536853,-9.474507196285321,2.8225740019374697
3.1878981608050236,-9.510336285735006,2.7728292579566634
3.162313958879152,-9.619094089170929,2.710098054264054
3.1959998247482164,-9.89848475477326,2.5965215591574347
3.3018544602165125,-10.31128160449676,2.505946505404772
3.4058968813817256,-10.87971900236162,2.43661201711294
3.5707017821208855,-11.484112543184853,2.4522397906644327
3.6620587031645204,-12.086854388395157,2.4668770715260413
3.7292172332199347,-12.65198839503416,2.5302686036785733
3.760664481420486,-13.132504764887736,2.582544606755748
3.720475964228595,-13.430699349775718,2.6492377812078907
3.6080120765961157,-13.631443893500903,2.7045953170980357
3.496720798218572,-13.723684740807538,2.773929805389867
3.362510338949101,-13.672101016280688,2.797261410973785
3.216253984606199,-13.609336582989396,2.7599528529881807
3.0708504369941587,-13.474913970798733,2.69986296313526
2.9255534902234768,-13.329183596334943,2.6036751174732586
2.7560581524645738,-13.171764299071965,2.4588430752636548
2.6110810082179654,-13.003164293044547,2.3025653397487327
2.44169227130042,-12.834691340525815,2.1095293199648077
2.309187425492674,-12.642840542408708,1.9296998693793268
2.1642102812460657,-12.473986429363915,1.7854181008863248
2.043751330511751,-12.305894637371244,1.6294705296013638
1.9228659764120053,-12.172488453250077,1.545388705704603
1.8390777151047741,-12.003888447222659,1.4626275387276864
1.7800208489925526,-11.811402381562116,1.404738743741173
1.7205375795149,-11.654491298333886,1.3704016638252183
1.6731002051106787,-11.509523244922217,1.348170605674504
1.6500744233773939,-11.377006435361858,1.3381556240323507
1.627048641644109,-11.244235518784125,1.3401366094121172
1.640373746813834,-11.14792895919951,1.3663296383223646
1.6538054528249169,-11.040060530324395,1.3684206784454516
1.6912223481415047,-10.981234755802394,1.345749401321456
1.7041210499457986,-10.921138446193526,1.3591760800065409
1.766482542140112,-10.813905284861844,1.386139492120031
1.8280978284449207,-10.778584409446907,1.4239983238222373
1.938536300091602,-10.757493527004893,1.4016572109282026
2.1098438521535874,-10.772485841029939,1.452282392855572
2.2683593032526366,-10.83601259537335,1.4653789073106955
2.475697939693559,-10.912371754094135,1.4911317172476617
2.6948692695251966,-11.024941162790663,1.5285503299765866
2.8894158050031824,-11.14958065481244,1.528990548949868
3.071916445407737,-11.26164184947422,1.5416468444317104
3.266356380044365,-11.398732585347306,1.5176549103878703
3.4117599276564046,-11.546622869458771,1.5048885601627076
3.5203861850000036,-11.694004939535489,1.4674699474337827
3.60438764798995,-11.853584146446144,1.3931829956925343
3.6640841191503184,-12.000585055996801,1.3187859892079659
3.7356132837014027,-12.184177376049265,1.231732687241555
3.7832638597883395,-12.318599988239928,1.169441702522227
3.8185487382777716,-12.452768493413215,1.1070406630595784
3.8418943225351296,-12.56266977842732,1.0448597330835707
3.8286758182067624,-12.65999276608143,0.9703526718556817
3.7791064269753853,-12.720089075690298,0.9080616871363537
3.692866346316925,-12.767988248465231,0.8091224728913431
3.5947935722677484,-12.790984933537548,0.7468314881720151
3.4849947056692137,-12.753758255492308,0.6734249743773298
3.4000338351070467,-12.692899624831318,0.6127848108078072
3.3029204686300906,-12.619716803827705,0.552254701981605
3.2308582998722173,-12.499778291627342,0.45661713003620547
3.060510155382452,-12.401057715377677,0.38332067098484063
2.8659636199044662,-12.277815811951456,0.3102443214201165
2.6353860000475438,-12.094096438390306,0.2135062020415133
2.3923360817517585,-11.933881963936217,0.12821377596822833
2.149179562614616,-11.773413382464756,0.055137426403504206
1.9554858338674923,-11.577750979087043,-0.004622299219455442
1.7488934033160748,-11.429987748484265,-0.06526246278897803
1.579398065557172,-11.258338458248362,-0.08881417785953671
1.4582995097747107,-11.135985929382949,-0.12458196943865621
1.3250484580774602,-11.001182156666227,-0.14824373925253526
1.2162089990511458,-10.878702574292126,-0.1596894325578535
1.082531543988464,-10.779727891025088,-0.1719055090664143
0.9731590807553607,-10.704639267391173,-0.14780352027925378
0.863999819204973,-10.606045744650196,-0.14758341079261306
0.7793587511668794,-10.507198114891846,-0.11071507178028989
0.6943978806047124,-10.432236544766617,-0.06207087523268737
0.64653410283506,-10.3224623132612,-0.03664822952568243
0.5981373208586186,-10.259951986987282,0.0364281200390417
0.5870508333574073,-10.149796594955802,0.12304120303217106
0.5875838375641963,-10.100880994111375,0.1722356732963754
0.5515527531852598,-10.02744406609039,0.19732815477341925
0.6015485477820682,-9.93177277404921,0.23606742442218867
0.6269195480252246,-9.859987541641152,0.24982426733723462
0.689281040219538,-9.752246166274723,0.3009997229812056
0.7884198226822925,-9.63306997512648,0.3650515835936596
0.9244424962548459,-9.516053693625913,0.36901355435319283
1.0113221819614533,-9.40932874632898,0.39641718543996435
1.1227200611803547,-9.30362022710154,0.3998288824828958
1.1732488599839521,-9.173644487714917,0.34238030646966383
1.2848599408855694,-9.044049908854355,0.3463422772291971
1.384425126713755,-8.902004086142481,0.35030424798873033
1.4960362076153721,-8.772282453773233,0.35415616400494315
1.5714030024553372,-8.606604678445612,0.309804102446835
1.65849588984466,-8.489969557471104,0.22836359238976292
1.7454821763926254,-8.371936847901043,0.21966926766745387
1.8324684629405905,-8.267117703234412,0.1501146698889815
1.9313940437206294,-8.186184618200903,0.10455200615434929
2.017527523537732,-8.152007224364146,0.10631288204747517
2.0794626123666142,-8.094451984929014,0.04776375860103957
2.1532303945862123,-8.072852888452253,0.012876404968483019
2.177855188939864,-8.061545126179126,0.0013206569198444121
2.2514097694767465,-8.051253791975494,0.0025312590963684567
2.324857749172271,-8.053159594605797,-0.008584269978988679
2.3986255313918687,-8.031052284094288,-0.019259580081064345
2.471860309404678,-8.056462985831654,-0.006603284599222061
2.545095087417487,-8.069676550735084,0.0183791421345014
2.6185430671130114,-8.071201192839325,0.03147565658962515
2.655000554857379,-8.095595466507197,0.05579775486342641
2.691458042601747,-8.11948152614032,0.10433189666770856
2.678559340797453,-8.179323728731815,0.10301123974786415
2.677919735749306,-8.238784770797249,0.1382287576103818
2.66512763478637,-8.285794569011374,0.17355633021621983
2.615451642713635,-8.344112129498628,0.20811351961881527
2.6027661425920567,-8.378797737370132,0.26776319049845454
2.5533033522020374,-8.413229238224261,0.29065457710909104
2.5283587553243123,-8.447660739078392,0.35019419324540996
2.455230578152861,-8.421487716288905,0.373855963059289
2.3696301025425472,-8.406749509281234,0.40929359040844737
2.28370982440816,-8.416405575941432,0.4320749222757635
2.1983225504805617,-8.376764881231143,0.5163768556591651
2.1247679699436794,-8.373461490005285,0.6000184605826445
2.026695195894503,-8.38286344964811,0.6226897377066403
1.916576526771895,-8.367871135623064,0.6456911790605971
1.8185037527227186,-8.376510774213768,0.7046805214803142
1.757421470624699,-8.362788995275592,0.7161262147856324
1.7205375795149,-8.373334436496599,0.7517839516214316
1.7078520793933216,-8.407892990859414,0.8114336225010709
1.6833338858810276,-8.407384776824667,0.8111034582711097
1.6219318012589345,-8.417549057519613,0.8343250091117074
1.573535019282493,-8.368125242640438,0.8465410856202682
1.4753556443919589,-8.377908362809324,0.845000319213783
1.3780290762322869,-8.328103387404088,0.8203480567100206
1.3050074999021937,-8.291257869884909,0.7715938054190977
1.219833427657311,-8.241198787462299,0.7712636411891367
1.1596039522901538,-8.144129906825563,0.7480420903485391
1.0869021784841337,-8.083271276164574,0.6997280580308977
1.026459501434261,-8.010342562178336,0.6759562334736983
1.0022611104460402,-7.985948288510465,0.6639602664517782
0.9663366269084614,-7.9134007350502875,0.6405186061245398
0.9665498285911771,-7.889133514891103,0.6530648468630618
0.9426712401270297,-7.840726128081423,0.6415090988144232
0.9553567402486081,-7.792445794780429,0.6668216897781077
0.9681488412115441,-7.7444195684968085,0.6799182042332315
0.9806211396504068,-7.7202794018463115,0.7046805214803142
1.0177182324429213,-7.684831472922687,0.7179971454220787
1.0425562284792889,-7.648621222946941,0.7553057034076833
1.0911662121384458,-7.685339686957434,0.7795177469381642
1.1641877884685392,-7.722185204476614,0.8282719982290871
1.2372093647986324,-7.759411882521854,0.8528142059895291
1.3104441428114415,-7.783679102681037,0.9260006102975736
1.3835723199828927,-7.807819269331534,1.0112930363708585
1.4685331905450596,-7.86842379297515,1.0840392217056216
1.5659663595460893,-7.904634042950896,1.193653746052708
1.6631863268644034,-7.964984459577138,1.3029381061698329
1.7240554072797074,-7.9887434657015755,1.3880104227564771
1.8085898744764433,-8.097247162120125,1.4719821919099176
1.880865244917032,-8.1939348822308,1.5317419175328773
1.9280894176385375,-8.350591858441657,1.5658588879621913
1.9997251830309795,-8.520081239029883,1.5880899461129057
2.0580358432536965,-8.78638539323747,1.5599159318228915
2.0799956165734033,-9.028041166759813,1.5195258410243164
2.089163288930174,-9.305653083240529,1.4662593452572585
2.0866048687375867,-9.546673589219438,1.4255390902287224
2.0355430657272002,-9.739032601371294,1.3608269011563463
1.9485567791792353,-9.857954685502163,1.321207193561014
1.8741493919114904,-9.94092062667466,1.2944638909341646
1.775543613655525,-9.999619347687974,1.2436185995201547
1.702308835642716,-9.986151675767172,1.2307421945516717
1.6043426624348973,-9.984499980154242,1.2052094941013465
1.493904190788216,-10.00660729066575,1.1669104434258584
1.4322889044834075,-10.041547005554627,1.1533737099974533
1.3585211222638094,-10.06390842308351,1.1519429983342884
1.2966926342762852,-10.122861251114196,1.1378559911892814
1.283900533313349,-10.170379263363069,1.1489715202646384
1.28336752910656,-10.218278436138002,1.160197104083316
1.3562825045952958,-10.266685822947684,1.232943289418079
1.4538222744376832,-10.291080096615554,1.3306719014865656
1.5513620442800706,-10.3272903465913,1.4402864258336519
1.685785705232257,-10.339360429916548,1.599315529931583
1.783112273391929,-10.387640763217542,1.7087099447920284
1.8677533414300225,-10.47136902544216,1.8294399982144718
1.952927413674905,-10.519141144708406,1.9508303800968374
2.012837086517989,-10.626755466566149,2.046467952042237
2.036289271616705,-10.709848461247333,2.1301095569657162
2.0351166623617694,-10.816954569070328,2.188658680412152
2.0462031498629805,-10.9117364865507,2.2717500116190297
2.0821276334005594,-10.98377582597613,2.319403715476749
2.0810616249869813,-11.078811850473876,2.378172948409825
2.0921481124881924,-11.17473724953243,2.4008442255338207
2.103661003354835,-11.2463954284318,2.435951688653018
2.0900160956610363,-11.36607983361479,2.445746560808531
2.0765843896499536,-11.473821208981219,2.4557615424506842
2.0636856878456595,-11.533536358064028,2.4544408855308397
2.037781683395714,-11.6659261141157,2.4153714516521094
2.024563179067347,-11.762740887735063,2.3650764339547012
1.9745673844705385,-11.858412179776243,2.326337164305932
1.9488765817033087,-11.966788822686105,2.287707949400483
1.9116728880694362,-12.015196209495786,2.225857183654436
1.8495245975578385,-12.098797418211717,2.1750118922404265
1.76317791605802,-12.158131406768465,2.1122806885478167
1.6773642387649907,-12.18201746640159,2.013781693276088
1.5915505614719614,-12.194595763761585,1.8792947969385985
1.4814318923493535,-12.193706389200777,1.79301187817543
1.4200298077272604,-12.216576020764405,1.7796952542336657
1.3463686263490202,-12.227375569002787,1.7542726085266607
1.2852863442510005,-12.227121461985412,1.6928620617538956
1.1987264610684665,-12.297509105797914,1.6782247808922868
1.112486380410006,-12.34375658295992,1.67624379551252
0.989042606117673,-12.436886804827363,1.684938120234829
0.8774315252160558,-12.554030139836616,1.705518357235738
0.7420484566916492,-12.610441897693567,1.7388649444618092
0.6680674727893356,-12.65592705380345,1.7854181008863248
0.5941930897283799,-12.68959623360546,1.8200853450322405
0.5692484928506546,-12.725044162529084,1.8190948523423573
0.5203187066674242,-12.72440889498565,1.7942224803519542
0.48343481555762524,-12.748803168653522,1.7327018788358686
0.5322580008994978,-12.762779054609071,1.6848280654915087
0.6178584765098116,-12.777898422142805,1.6251783946118694
0.7524953391447137,-12.794669485289466,1.542087063404992
0.9488540889257822,-12.763922536187254,1.4969646186436412
1.133806548681566,-12.661390354676985,1.428730677785013
1.3441300086805064,-12.475129910942098,1.3624777223061517
1.4931579848987115,-12.28645545054216,1.3558744377069298
1.654338457031706,-12.10997812697616,1.3491610983643874
1.7787416388962591,-11.93299258937541,1.329901518283323
1.8779870222003714,-11.814324612261913,1.369741335365296
2.0141162966142825,-11.684984140418726,1.3860294373767106
2.1749769662232032,-11.531376448416351,1.4395160426304092
2.3475637283814823,-11.42617614322366,1.4922322646808652
2.520790095587908,-11.260879528422098,1.546049034164525
2.7311135555868487,-11.060134984696914,1.613072372846629
2.8797151284396225,-10.90614613216848,1.6784448903789273
3.0411088022553323,-10.704512213882486,1.7327018788358686
3.1408871897662336,-10.53781801048537,1.7734221338644047
3.1913093877284733,-10.407334057064,1.7401856013816537
3.265823375837576,-10.313314460635748,1.718724926434182
3.3033468719955215,-10.241783335245065,1.7325918240925484
3.3039864770436687,-10.18194113265357,1.7215863497605115
3.304839283774531,-10.110791167788948,1.6744829196193942
3.2937527962733197,-10.015501036273827,1.6156036319429974
3.245569215979594,-9.94295348281365,1.579835840363878
3.2467418252345297,-9.835466214464596,1.5454987604479233
3.2238226443426026,-9.703457618938982,1.511271735275289
3.225208455280254,-9.571830183939431,1.4773748743326156
3.2510058588888415,-9.464978183133809,1.4433679586466222
3.2889557584122184,-9.358380289345563,1.4094710977039488
3.3516370531306054,-9.227769282415505,1.400556663494999
3.414318347848992,-9.097158275485448,1.3917522840293697
3.4523748482137266,-8.977982084337205,1.382287576103818
3.4781722518223144,-8.858170625645528,1.396924856965427
3.4676187685278923,-8.701386595925984,1.4116721925703561
3.481263676221691,-8.568742732856936,1.4506315717057663
3.4823296846352685,-8.472182066254948,1.4766044911293732
3.495654789804994,-8.363551316327712,1.5150135965481815
3.5455439835604445,-8.280077161120468,1.5414267349450697
3.595326576474537,-8.208927196255845,1.5555137420900766
3.656408858572557,-8.221632547124528,1.5923820811023999
3.7782536202445227,-8.272072790073198,1.6174745625794438
3.912250877831278,-8.334456062838429,1.6544529563350872
4.009044441784161,-8.443722080309099,1.7143227367013674
4.142615296005485,-8.542061496032703,1.7628568785056493
4.239622061641083,-8.62744145387025,1.8110608560799704
4.3127502388125345,-8.652470995081556,1.848039249835614
4.373725920069196,-8.677500536292861,1.872581457596056
4.422655706252427,-8.678516964362355,1.8732417860559782
4.4472805006060785,-8.666828041563166,1.8858980815378206
4.484270992557236,-8.64345019596479,1.8989945959929442
4.508362782704099,-8.68029571348397,1.8865584099977426
4.556866165521898,-8.7292113143284,1.8984443222763423
4.580531552303329,-8.80239413533201,1.8732417860559782
4.592470846535403,-8.826280194965134,1.8972337200998184
4.591724640645898,-8.897811320355817,1.9201251067104548
4.566886644609531,-8.921316219462879,1.9193547235072121
4.566780043768173,-8.93287808875338,1.9433466575510525
4.5420486485731635,-8.956128880843071,1.9546822961130503
4.50537795914608,-8.942661208922267,1.9906701971788106
4.481072967316502,-8.929828804544897,2.0026661642007304
4.456767975486923,-8.904036942281472,2.063306327770253
4.4447220804134915,-8.879007401070167,2.0999545572959355
4.4570877780109965,-8.865920889675424,2.1729208521173393
4.469346874767144,-8.852326164245934,2.2702092452125444
4.457300979693712,-8.826915462508568,2.3309594635253874
4.432782786181418,-8.825009659878265,2.403265429886869
4.38374639915683,-8.82246858970453,2.4752412320183894
4.3222377136933785,-8.843940632672602,2.534450683924747
4.260835629071286,-8.853850806350176,2.569778256530585
4.187494250217119,-8.83885849232513,2.641644003918785
4.089314875326584,-8.846989916881087,2.724845389868983
3.979089605362619,-8.843559472146541,2.77172871052346
3.8195081458499915,-8.875068742300876,2.8174014290014124
3.635621694507786,-8.882946059839458,2.8146500604184035
3.451628642324222,-8.915090597537226,2.799352451096872
3.2429041949456487,-8.958415843999433,2.7957206445673
3.07127684035959,-8.978744405389325,2.7808632542190503
2.850506497907585,-9.010507782561032,2.7408033276504367
2.678985744162884,-9.018893314134363,2.7261660467888276
2.4948860911379627,-9.05141901235819,2.686766448680136
2.347776930064198,-9.072509894800204,2.6600231460532866
2.212607063222507,-9.118757371962207,2.596851723387396
2.126260381722689,-9.177329039466835,2.570328530247187
2.0274414017840074,-9.260167927130645,2.519043019859896
1.9284092201626108,-9.354949844611017,2.4675373999859636
1.8905659214805917,-9.462818273486134,2.440904152102435
1.8160519333714893,-9.557727244475192,2.4139407399889445
1.7781020338481122,-9.665341566332934,2.3994135138706563
1.7034814448976519,-9.772066513629868,2.3843360140357657
1.6784302471785688,-9.819584525878742,2.3831254118592415
1.6043426624348973,-9.878664407418116,2.3447163064404335
1.5667125654355938,-9.961503295081927,2.3668373098478273
1.5667125654355938,-9.960995081047178,2.391049353378308
1.4932645857400693,-9.960486867012431,2.3295287518622225
1.4936909891055006,-9.924911884580121,2.305977036791664
1.5061632875443631,-9.901152878455685,2.306637365251586
1.5061632875443631,-9.901915199507805,2.270319299955865
1.5797178680812456,-9.904202162664168,2.234991727350027
1.6524196418872654,-9.978909625772022,2.186237476059104
1.7725587900975066,-10.185371577388114,2.220464501231738
1.9168963292959684,-10.430203688627628,2.1576232427958084
2.0965187469838624,-10.80806082346225,2.0928009989801115
2.275181757099536,-11.269010952978055,2.0870781523274524
2.527186146069376,-11.743174647397291,2.1062276776651965
2.7787641316737854,-12.239445652328035,2.2217851581515826
2.981092528570891,-12.756680486192105,2.4453063418352494
3.185019938088363,-13.131361283309555,2.574510610493361
3.340550565629394,-13.457507640108638,2.6797229451076325
3.411653326815047,-13.661809682077054,2.7618237836246267
3.471882802182204,-13.744902676758239,2.894219639839029
3.410693919242827,-13.73003741624188,2.96630549671387
3.337992145436807,-13.655075846116652,3.027165769770033
3.266249779203007,-13.511759488317912,2.8955402967588735
3.2191322073228594,-13.344175910359988,2.801113326989998
3.1345977401261234,-13.247996404284061,2.7048154265846764
3.0866273615151134,-13.165538677146312,2.560423603348354
3.0637081806231863,-13.05030114476736,2.2717500116190297
3.0893989833904163,-12.958314404478097,2.0801447034982696
3.1147699836335727,-12.889070242243777,1.9607353069956706
3.10421650033915,-12.74524567041029,1.9268384460529973
3.045266235068287,-12.541197735459248,1.8449577170226437
2.9010352967111825,-12.298652587376095,1.7868488125494895
2.744865064122005,-12.032221379659822,1.7047479740324953
2.5889080332155427,-11.741904112310422,1.6108712779802217
2.4325245989436493,-11.487542987919397,1.5285503299765866
2.3004461565013345,-11.25681381614412,1.4945434142905931
2.16836771405902,-11.013887507534909,1.4728626298564806
2.0478021624833476,-10.844144019929308,1.4016572109282026
1.9758465945668322,-10.711500156860263,1.3425578137651653
1.9034646232848855,-10.61430422271484,1.3070101316726865
1.9039976274916746,-10.566023889413845,1.31999659138449
1.9407749177601157,-10.566786210465967,1.3204368103577713
2.025629187480925,-10.640477245504327,1.3445387991449318
2.1101636546776605,-10.75037853051843,1.3558744377069298
2.2434147063749115,-10.886706945339395,1.2946840004208053
2.3395686652796472,-11.056831593471056,1.3172452228014806
2.4721801119287514,-11.239026324927964,1.3763446199645182
2.593491869393928,-11.336984580125508,1.4246586522821596
2.689219424933233,-11.54306537121554,1.4464494914595925
2.687087408106077,-11.73517027635002,1.4551438161819015
2.710113189839362,-11.882298239409366,1.3317724489197693
2.9887677891486524,-12.15241399887756,1.3671000215256073
2.9867423731628544,-12.345789439098908,1.3030481609131532
3.04558603759236,-12.57994905560873,1.0697321050739739
2.95785354515489,-12.771037532673716,1.028791740558797
2.8952788512778613,-12.90571425188175,0.8196877282500984
2.8199120564378966,-13.085749073690984,0.7428695174124819
2.62344670581547,-13.15842368065985,0.4724650130743384
2.6110810082179654,-13.171510192054592,0.39949871825293465
2.4274077585584752,-13.180276884153983,0.3483232626089637
2.4639718471442005,-13.194760984144281,0.26391127448224166
2.6611834036561315,-13.092228802634013,0.2080034648754949
2.71213860582516,-12.913464515911649,0.18775339210454725
2.7132046142387383,-12.817412063344408,0.18940421325435278
2.5795271591760565,-12.717420952007876,0.2257222785500741
2.3480967325882713,-12.605359757346093,0.15187554578210738
2.1657026930250747,-12.493933830227748,0.10290118500454377
1.9468511657175105,-12.34451890401204,0.11467704253982312
1.7034814448976519,-12.207428168138954,0.07736848455421848
1.5463518047362539,-12.023708794577804,0.0663630102221817
1.3527646768304882,-11.802762742971412,0.07978968890726656
1.1468118513272176,-11.593378560655523,0.09277614861906995
0.9416052317134518,-11.323771015222079,0.11896917752931746
0.7728560998440536,-11.079955332052059,0.09673811937860319
0.5916346695357927,-10.847955625189913,0.07417689699792782
0.42213933177688995,-10.675289906884517,0.09915932373165127
0.27716218753028127,-10.491697586832052,0.10036992590817533
0.1315454382355258,-10.368582736914519,0.07637799186433517
0.010020479087633247,-10.282186351007477,0.05205589359053391
-0.07398098390231354,-10.124131786201064,0.04160069297509898
-0.15862205194040713,-10.025792370477461,0.05425698845694126
-0.24262351493035392,-9.866975484618928,0.09222587490246811
-0.2657558975049966,-9.745766437331696,0.11830884906939525
-0.1537184132379483,-9.566875097100644,0.18368136660169365
-0.029848235580184138,-9.436772304205334,0.22396140265694822
0.16725672009038897,-9.332080213047389,0.27700778893736544
0.3886666675905406,-9.23958525872338,0.3544863282349043
0.5731927239808933,-9.158398066672497,0.4189784078206397
0.757718780371246,-9.077973195673737,0.44726247685397424
0.8321261676389906,-8.995515468535986,0.44979373595034267
0.9069599582721666,-8.87684749142249,0.4650913452718738
1.0059921398935632,-8.770630758160303,0.4803889545934049
1.0808259305267391,-8.652343941572868,0.47147452038445514
1.2287878983313663,-8.559594880231485,0.47521638165734764
1.389222164574856,-8.455029842582228,0.4793984619035216
1.512665938867189,-8.361899620714784,0.47070413718121257
1.6608411083545316,-8.257207529556839,0.4625600861755053
1.8083766727937276,-8.200795771699887,0.45353559722323517
1.9317138462447028,-8.131678662974254,0.4444010535276447
2.0428985237808885,-8.038675494615498,0.411274575788214
2.153656797951643,-7.993317392014301,0.4015897583760216
2.228064185219388,-7.911621985928671,0.36780295217666875
2.3388224593901428,-7.866517990344848,0.3459020582559156
2.400650947377667,-7.820524620200217,0.31134486885332013
2.4497939352436133,-7.810233285996584,0.27590724150416174
2.523774919145927,-7.764112862343266,0.26567215037536757
2.536034015902074,-7.765002236904074,0.2294641398229666
2.561085213621157,-7.7173571711465145,0.2427807637647311
2.5731311086945885,-7.73031662903257,0.20646269846900975
2.5611918144625148,-7.706176462382073,0.19457678619041005
2.536886822632936,-7.693471111513391,0.20657275321233012
2.5489327177063674,-7.706430569399447,0.1702546879166088
2.536460419267505,-7.730189575523884,0.16959435945668658
2.511835624913853,-7.741370284288324,0.1811501075053252
2.4992567256336327,-7.777199373738009,0.18037972430208263
2.46205303199976,-7.811884981609513,0.20338116565603948
2.4246361366831723,-7.870964863148887,0.21394642101479475
2.3752799471345107,-7.90565047102039,0.2247317858601908
2.3133448583056286,-7.964349192033705,0.22286085522374455
2.239363874403315,-8.010342562178336,0.24520196811777917
2.140971297830065,-8.043884688471657,0.25521694975993264
2.0672035156104673,-8.07857029634316,0.24146010684488667
2.0058014309883743,-8.088988684055481,0.2525756359202438
1.9199877536953447,-8.098771804224366,0.26325094602231947
1.8710579675121142,-8.084922971777502,0.29912879234475936
1.797503386975232,-8.0945790384377,0.33423625546395663
1.7730917943042956,-8.081365473534271,0.3704442660163576
1.7362079031944966,-8.091656807737904,0.41820802461739714
1.662759923498972,-8.090386272651036,0.393005488397033
1.6138301373157418,-8.076537440204172,0.4288833347194728
1.5402755567788593,-8.086955827916492,0.4275626777996284
1.5034982665104182,-8.085558239320937,0.4513345023568278
1.4547816820099033,-8.060274591092258,0.46322041463542757
1.4059584966680307,-8.047061026188828,0.46278019566214607
1.3936993999118836,-8.047061026188828,0.4504540644102649
1.394125803277315,-8.010977829721769,0.4511143928701871
1.3819733073625255,-7.9989077463965215,0.43911842584826705
1.3821865090452412,-7.987091770088647,0.4272325135696673
1.3826129124106723,-7.9388114367876526,0.4402189732814707
1.3823997107279569,-7.962824549929462,0.43977875430818925
1.3707802190199565,-7.901838865759786,0.4769772575504735
1.3708868198613144,-7.889387621908477,0.5014094105675951
1.3706736181785988,-7.9134007350502875,0.5009691915943136
1.3338963279101577,-7.912257253472106,0.5126349943862726
1.3458356221422312,-7.9366515271399765,0.5123048301563116
1.3459422229835891,-7.9239461762712935,0.5488430049386736
1.334109529592873,-7.887608872786862,0.5493932786552754
1.3711000215440299,-7.863214599118991,0.6108038254280406
1.3959380175803975,-7.827766670195366,0.611794318117924
1.4206694127754071,-7.803499450036182,0.6488827666168878
1.4695991989586377,-7.80438882459699,0.6616491168420504
1.4937975899468583,-7.828528991247487,0.6857511056292109
1.5427273761300888,-7.841742556150917,0.6861913246024924
1.59112415810653,-7.890404049977971,0.7101832586463326
1.6275816458508978,-7.914798323645842,0.7345053569201339
1.7006032221809912,-7.951643841165022,0.7832596082110568
1.7485736007920014,-8.035753263915701,0.842909279090696
1.7963307777202961,-8.14387579980819,0.9021187309970539
1.8311892528442968,-8.312094645309548,0.9480115589616471
1.9030382199194544,-8.456808591703844,1.006890846638044
1.913378501531161,-8.624392169661768,1.052453510372676
1.9608158759353822,-8.75640076518738,1.1233287650709929
1.9721155651193092,-8.840129027411997,1.1583261734468697
1.9590036616322997,-8.9105166712245,1.2295315923751478
1.9706231533402998,-8.969723606272561,1.2890712085114666
1.9824558467310158,-9.00542564221356,1.3249490548339065
1.9817096408415111,-9.06501373778768,1.3480605509311836
2.006227834353805,-9.06463257726162,1.3968148022221065
2.005161825940227,-9.160557976320174,1.4071599480942212
2.004202418368007,-9.244667399070853,1.405619181687736
1.9906641115155663,-9.36486001828859,1.3912020103127678
1.9642271028588318,-9.54502189360651,1.3633581602527147
1.9618818843489603,-9.762283393460983,1.3109721024322198
1.9349118714854368,-9.990852655588583,1.2702518474036837
1.8955761610244084,-10.230983787006686,1.2290913734018662
1.8440879546485907,-10.459171888608225,1.1758248776348081
1.7925997482727731,-10.687105883192391,1.1346644036329907
1.705080457518019,-10.854181247115568,1.0941642580910955
1.6293938601539806,-11.056831593471056,1.0894319041283196
1.5785452588263098,-11.223017582833425,1.1341141299163888
1.5272702541332077,-11.425032661645478,1.1902420490097765
1.464055955208032,-11.60354284135047,1.2103820670374037
1.4253598497951503,-11.782561235090208,1.230852249294992
1.3741914459434061,-11.97301444461176,1.2629882343445393
1.3115101512250196,-12.102481969963636,1.3324327773796913
1.2614077557868533,-12.196374512883201,1.3905416818528455
1.1995792677993289,-12.241859668993085,1.449310914785922
1.1506494816160986,-12.227375569002787,1.5215068264040832
1.1389233890667405,-12.177316486580176,1.6070193619640087
1.1269840948346668,-12.139708648008876,1.680095711528733
1.1029989055291618,-12.089395458568893,1.765388137602018
1.1399893974803186,-12.052549941049714,1.851340892135225
1.1892389861876222,-12.028917988433964,1.8887595048641501
1.2385951757362839,-11.993343006001652,1.9263982270797158
1.3120431554318084,-11.994359434071146,1.9637067850653205
1.3243022521879555,-11.98139997618509,2.024567058121484
1.3125761596385974,-11.931849107797229,2.0858675501509287
1.3131091638453865,-11.883187613970174,2.1230660533932126
1.2892305753812392,-11.821820769274437,2.1600444471488562
1.2534126926850182,-11.735424383367395,2.2337811251735027
1.1929700156351453,-11.661479241311662,2.258433387677265
1.1446798345000617,-11.58753409925593,2.2954117814329087
1.108755350962483,-11.514351278252317,2.3082881864013918
1.0966028550476936,-11.502281194927068,2.2962922193794717
1.08466356081562,-11.47775986775051,2.308618350631353
1.096922657571767,-11.478268081785258,2.296732438352753
1.108755350962483,-11.514605385269691,2.2961821646361513
1.1330603427920614,-11.52667546859494,2.3205042629099526
1.1324207377439146,-11.586644724695121,2.3315097372419893
1.1565125278907775,-11.62272792116218,2.3555016712858294
1.1562993262080619,-11.646995141321364,2.3429554305473075
1.1806043180376404,-11.660081652716107,2.318853441760147
1.2169552049406505,-11.697816544796094,2.2702092452125444
1.2776110836732388,-11.760962138613447,2.1852469833692205
1.3506326600033323,-11.813054077175046,2.0642968204601364
1.447959228163004,-11.890302610456637,1.9069185375120108
1.5208742036517395,-11.955099899886918,1.7494301998205646
1.6180941709700536,-12.04467262351113,1.5797257856205575
1.7032682432149362,-12.110232233993532,1.3982455138852714
1.7518782268740933,-12.150127035721196,1.252973252702386
1.7523046302395244,-12.129036153279182,1.0960351887275417
1.7034814448976519,-12.130306688366051,0.974314642615215
1.6672371588359998,-12.082788676117177,0.9021187309970539
1.6432519695304946,-12.047086640176179,0.8539147534227328
1.6679833647255042,-12.024089955103864,0.8304730930954944
1.7174461551155238,-11.989531400741047,0.807581706484858
1.8279912276035628,-11.956243381465098,0.7976767795860249
1.9639073003347585,-11.850661915746347,0.8256306843893984
2.1366006633343955,-11.734153848280526,0.8422489506307738
2.3096138288581054,-11.580164995752092,0.9321636759235142
2.4340170107226586,-11.40089249499498,1.0339643134948544
2.5344350032817067,-11.172831446902128,1.1363152247827963
2.5612984153038725,-10.94299164968766,1.2497816651460953
2.5762225330939645,-10.688630525296633,1.3755742367612755
2.553942957250184,-10.482295627189227,1.4516220643956497
2.5313435788823306,-10.299846788714945,1.5392256400786624
2.582192180210001,-10.119303752870964,1.6158237414296381
2.6569193700018197,-9.999238187161914,1.703757481342612
2.7926222410502994,-9.905218590733663,1.7557033201898256
2.9159594145012746,-9.822887917104598,1.807318994807078
3.0881197732941223,-9.753770808378965,1.8594849431409322
3.2236094426598867,-9.684018432109898,1.8988845412496238
3.3835107046965875,-9.615282483910326,1.914512314801116
3.4943755797087,-9.557727244475192,1.9170435738974845
3.6297586482331066,-9.50017200504006,1.9442270954976153
3.7164251322569988,-9.418476598954431,1.9226563658068232
3.876326394293699,-9.350248864789606,1.9140720958278346
4.011816063659464,-9.281385863081345,1.9050476068755644
4.171610724854807,-9.23717124205833,1.8960231179232943
4.319039688452645,-9.192194299983193,1.9109905630148643
4.405386369952463,-9.134512007039374,1.8889796143507909
4.479473954696134,-9.088772743912116,1.8545324796915157
4.479793757220208,-9.053197761479806,1.830980764620957
4.468174265512208,-9.004917428178812,1.8317511478241997
4.431503576085125,-8.991957970292756,1.8314209835942385
4.382573789901894,-8.991195649240634,1.8186546333690758
4.272348519937928,-8.989035739592959,1.79301187817543
4.1381380606684575,-8.950411472952164,1.7675892324684253
3.97951600872805,-8.899463015968745,1.7299505102528594
3.845625351982653,-8.825390820404326,1.6688701277100555
3.7366792921149807,-8.714473107320726,1.6815264231918976
3.6398857281620978,-8.604063608271876,1.6820766969084995
3.5434119667332884,-8.469895103098587,1.6710712225764628
3.4466184027804054,-8.359739711067109,1.6596255292711446
3.386602129095964,-8.250219586579064,1.6607260767043481
3.2773362667042183,-8.163569093654647,1.6607260767043481
3.1677506017883994,-8.100677606854669,1.6725019342396275
3.1067749205317376,-8.07501279809993,1.6841677370315866
3.033326940836213,-8.072725834943567,1.7194953096374246
2.9842905538116247,-8.070438871787204,1.7793650900037046
2.9347211625802476,-8.115542867371028,1.874672497719143
2.897624069787733,-8.13625258928698,2.006958299190225
2.8354757792761354,-8.205242644503928,2.0894993566805007
2.7612815936911064,-8.274995020772995,2.123506272366494
2.711072597411582,-8.381465861052556,2.157183023822527
2.6483913026931956,-8.511822760965238,2.178203479796717
2.6104414031698187,-8.619310029314294,2.1635661989351083
2.609055592232167,-8.739248541514657,2.1735811805772616
2.6205684830988094,-8.811414934448775,2.184476600165978
2.6437008656734524,-8.932496928227321,2.1704996477642915
2.691991046808536,-8.993355558888311,2.182275505299571
2.751794118810262,-9.1275240640616,2.1564126406192843
2.812023594177419,-9.225482319259141,2.1313201591422404
2.8968778638982284,-9.299554514823562,2.13121010439892
2.9453812467160274,-9.349232436720111,2.1067779513817984
3.018189621363405,-9.411234548959282,2.0945618748732375
3.0916376010589297,-9.413140351589584,2.0834463457978805
3.1649789799130965,-9.426735077019075,2.084216729001123
3.239066564656768,-9.380614653365758,2.073981637872329
3.2758438549252094,-9.369179837583943,2.0868580428408117
3.3129409477177236,-9.333477801642944,2.1121706338044963
3.350784246399743,-9.23793356311045,2.1265878051794647
3.3632565448386056,-9.21392044996864,2.139244100661307
3.3762618474842574,-9.141499950017149,2.176992877620193
3.376368448325615,-9.128540492131094,2.2256370741677953
3.3520634564960363,-9.102748629867667,2.286277237737318
3.315392767068953,-9.089026850929491,2.334481215311639
3.303133670312806,-9.087756315842622,2.38268519288596
3.266356380044365,-9.08585051321232,2.4427750827388808
3.2168935896543456,-9.132352097391697,2.465446359862877
3.192162194459336,-9.142897538612704,2.5133201732072368
3.1425928032279584,-9.201850366643392,2.5115592973141108
3.1422730007038853,-9.225228212241769,2.5474371436365506
3.12990730310638,-9.236917135040956,2.546996924663269
3.129480899740949,-9.272492117473268,2.5705486397338277
3.1171152021434443,-9.28405398676377,2.582324497269107
3.079804907668214,-9.331699052521328,2.5567917968187817
3.067439210070709,-9.343006814794457,2.580563621375981
3.054647109107773,-9.391033041078076,2.5674671069208577
3.0667996050225623,-9.403103124403325,2.5794630739427777
3.066053399133058,-9.475142463828755,2.5781424170229332
3.078205895047847,-9.475269517337443,2.5904685482748144
3.0778860925237734,-9.5113527138045,2.589808219814892
3.090038588438563,-9.511098606787128,2.6141303180886934
3.0656269957676265,-9.51059039275238,2.6138001538587323
3.0534744998528374,-9.49775798837501,2.6381222521325336
3.0170170121084694,-9.47298255418108,2.638012197389213
2.9926054194375333,-9.46053131032977,2.6257961208806524
2.907218145509935,-9.434866501575032,2.6130297706554897
2.8583949601680625,-9.421652936671602,2.612479496938888
2.7732208879231797,-9.371720907757679,2.612259387452247
2.7123518075078756,-9.334494229712439,2.599933256200366
2.651376126251214,-9.309464688501134,2.575391048439924
2.5901872433118363,-9.3088294209577,2.5381925451976395
2.5527703479952484,-9.380995813891817,2.488007582243552
2.5265465410212293,-9.538033950628735,2.4121798640958185
2.56044560857301,-9.804465158345009,2.347357620280122
2.630588962186443,-10.119811966905711,2.282095157491144
2.712245206666518,-10.49500097805791,2.240164300286084
2.8177800396107404,-10.917962108476354,2.2462173111687043
2.9229950700308893,-11.364046977475802,2.3001441353956844
3.027996898768323,-11.834144959617058,2.353630740649383
3.157943324383482,-12.268413852308631,2.4202138603582055
3.2144417703031163,-12.688833912553338,2.498242673372346
3.308996716587485,-12.989696621123743,2.590908767248096
3.3677337801756333,-13.218392936760031,2.648137233774687
3.4029120578237073,-13.35090974632039,2.6704783466687214
3.4023790536169183,-13.398808919095325,2.6817039304873993
3.3899067551780555,-13.422949085745822,2.656831558496996
3.3536624691164034,-13.387755263839571,2.5723095156269538
3.317204981372036,-13.37733687612725,2.4388131119793477
3.232244110809869,-13.318765208622624,2.2571127307574206
3.172334437966785,-13.212675528869124,2.076733006455338
3.0886527775009114,-13.045219004419886,1.933331675908899
2.981518931936322,-12.768623516008667,1.8157932100427463
2.8380341994687224,-12.46661732586008,1.7223567329637541
2.7068085637572703,-12.153430426947054,1.6051484313275626
2.5876288231192492,-11.863494320123715,1.536144107265692
2.4804949775546596,-11.586136510660374,1.4549237066952607
2.3849806236980706,-11.368366796771154,1.4211369004959078
2.2893596690001234,-11.163429487259304,1.3388159524922727
2.1809466133392403,-11.005756082978952,1.279606500585915
2.059848057556779,-10.883911768148286,1.2196266654763146
1.91391150573795,-10.79764243574993,1.1585462829335105
1.8046456433462046,-10.711627210368949,1.1223382723811095
1.6821612766260918,-10.708959086686525,1.120687451231304
1.633444692125577,-10.68354838494916,1.1324633087665834
1.6209723936867142,-10.70679917703885,1.1561250785804624
1.6566836755415775,-10.790908599789528,1.2035586729515408
1.7779954330067544,-10.888358640952324,1.2760847487996632
1.947597371607015,-11.060134984696914,1.2995264091269014
2.1051534151338442,-11.207008840738885,1.3475102772145817
2.2628160595020312,-11.341431452929546,1.4199262983193837
2.359716224296272,-11.439135601109715,1.4558041446418235
2.407686602907282,-11.524388505438576,1.4549237066952607
2.4806015783960174,-11.57393937382644,1.467249837947142
2.5779281465556894,-11.636449700100357,1.4553639256685422
2.71213860582516,-11.687906371118522,1.4441383418498646
2.8578619559612735,-11.80047577981505,1.3837182877669827
2.9918592135480284,-11.877089045553205,1.3116324308921419
3.100592071732985,-12.025614597208106,1.2135736545936944
3.197385635685868,-12.137929898887261,1.116175206755169
3.257721711894383,-12.225088605846423,1.0306626711952434
3.2819201028826037,-12.263712872487218,0.9213783110781182
3.293432993749246,-12.33727685401689,0.8597476548187123
3.3056920905053935,-12.338674442612446,0.7993276007358304
3.2693412036023832,-12.315169543505384,0.7266914701443877
3.1964262281136477,-12.265872782134894,0.7023693718705865
3.0744748656003242,-12.215686646203599,0.6652809233716226
2.9530565072937893,-12.12954436731393,0.6287427485892605
2.8313183464631813,-12.067542255074759,0.5797683878116969
2.7344181816689406,-11.969838106894588,0.5438905414892571
2.662142811228352,-11.860445035915232,0.5206689906486595
2.6386906261296357,-11.763503208787183,0.5340956693337443
2.578674352445194,-11.65474540535126,0.49898820621454704
2.481987389333669,-11.545225280863216,0.4511143928701871
2.3607822327098495,-11.434942835323051,0.41512649180442684
2.1911802941095893,-11.263293545087148,0.3916848314771886
1.9845878635581717,-11.126965130266184,0.3549265472081857
1.7903611306042593,-10.96700476282947,0.3187185366557848
1.584301704259631,-10.783285389268318,0.2465226250376236
1.4023340680618654,-10.623325021831604,0.22275080048042417
1.2200466293400267,-10.49944785086195,0.19820859271998217
1.062703787495913,-10.328052667643421,0.17487698713606423
0.9170870382011577,-10.204810764217198,0.16288102011414415
0.7836227848211914,-10.093765997624912,0.15099510783554446
0.6378994346850781,-9.981958909980506,0.16299107485746453
0.528953374817406,-9.859098167080344,0.17586747982594755
0.44473871014474364,-9.72442144787231,0.20129012553295247
0.4093472308139539,-9.590507049716393,0.2515851432303605
0.4105198400688897,-9.481622192771784,0.28988419390584846
0.4115858484824677,-9.384553312135049,0.3400691568599361
0.46179484476199173,-9.264741853443372,0.379248645481987
0.548781131309957,-9.146073876329876,0.40676233131207895
0.63587401869928,-9.027660006233754,0.4221699953769304
0.6980223092108776,-8.944948172078629,0.4245911997299785
0.8091003859057058,-8.863252765993,0.4275626777996284
0.9081325675271024,-8.769106116056061,0.44275023237783917
0.9583415638066264,-8.662508222267816,0.42117950268704707
1.0326423502330133,-8.580050495130065,0.42371076178341555
1.0334951569638757,-8.508900530265441,0.3766073316422982
1.108222346755694,-8.403064957529315,0.3432607444162268
1.1697310322191448,-8.38083059350912,0.3203693578055903
1.268550012157826,-8.299135187423492,0.31112475936667944
1.3915673830847277,-8.25390413833098,0.31365601846304786
1.514797955694345,-8.184151762061914,0.3408395400631787
1.6379219274626047,-8.126850629644155,0.34359090864618785
1.7608326975481485,-8.081238420025585,0.3582281895077968
1.8592252741213984,-8.047188079697515,0.3723151966528038
1.933206258023712,-8.00132176306157,0.3499740837587692
1.9948215443285207,-7.967017315716128,0.3271927518914531
2.043857931353109,-7.9684149043116825,0.31574705858613483
2.093000919219055,-7.9582506236167365,0.2803094312369765
2.1173059110486334,-7.9709559744854195,0.2683134642150564
2.153763398793001,-7.996112569205411,0.2563174971931363
2.153869999634359,-7.9836613253541024,0.28074965021025794
2.153763398793001,-7.996112569205411,0.2563174971931363
2.178494793988011,-7.972353563080975,0.2691939021616193
2.14171750371957,-7.983534271845415,0.26842351895837674
2.1419307054022854,-7.959521158703605,0.26886373793165824
2.142037306243643,-7.947578128887043,0.26908384741829894
2.1171993102072757,-7.983280164828042,0.2559873329631752
2.0804220199388346,-7.98213668324986,0.26765313575513416
2.0555840239024668,-8.017711665682171,0.2666626430652509
2.030852628707457,-8.04096245777186,0.27799828162724877
2.0058014309883743,-8.087718148968612,0.31310574474644604
2.004842023416154,-8.171192304175857,0.34788304363568223
1.9917301199291444,-8.242596376057854,0.37066437550299836
1.9665723213687034,-8.301422150579855,0.4055517291355549
1.990344308991493,-8.36088319264529,0.46531145475851454
1.9284092201626108,-8.418438432080421,0.5238605782049501
1.9031448207608122,-8.489588396945043,0.5464218005856255
1.865834526285582,-8.535962927615735,0.5935252307267429
1.8284176309689941,-8.593772274068241,0.6646205949117003
1.779274643103048,-8.604444768797935,0.6757361239870575
1.74185774778646,-8.66352465033731,0.6863013793458128
1.7173395542741658,-8.662635275776502,0.6980772368810921
1.7176593567982394,-8.63824100210863,0.7227294993848545
1.6805622640057247,-8.660983580163572,0.745951050225452
1.6322720828706412,-8.599743788976523,0.7463912691987336
1.5714030024553372,-8.562263003913909,0.7462812144554132
1.4862289302104545,-8.512458028508673,0.7338450284602116
1.4379387490753708,-8.451472344338997,0.7221792256682527
1.3530844793545616,-8.37765425579195,0.7101832586463326
1.2926418023046888,-8.304217327770965,0.7107335323629345
1.268976415523257,-8.2315427208021,0.7116139703094974
1.233265133668394,-8.134346786656678,0.7250406489945822
1.20970634772832,-8.049602096362564,0.7262512511711063
1.1734620616666678,-8.000686495518137,0.7265814154010674
1.1863607634709616,-7.940844292926641,0.7277920175775915
1.162162372482741,-7.916322965750084,0.7279020723209118
1.1622689733240987,-7.903998775407462,0.740228203572793
1.1497966748852362,-7.928011888549272,0.7275719080909507
1.198513259385751,-7.95253321572583,0.7641100828733127
1.2227116503739717,-7.976673382376327,0.7882120716604732
1.2592757389596971,-7.988997572718949,0.8127542794209153
1.2830477265824867,-8.04896682881913,0.848301961513394
1.3193986134854967,-8.084922971777502,0.896505939087715
1.3672623912551491,-8.18148363837949,0.9318335116935531
1.4155525723902327,-8.241834055005732,0.9798173797812334
1.4634163501598851,-8.337886507572973,1.039246941174232
1.5242854305751892,-8.362153727732158,1.1001072142303954
1.572575611710273,-8.422758251375773,1.1360951152961556
1.5966674018571358,-8.458460287316772,1.1841890381271563
1.645170784674935,-8.494416430275143,1.2447191469533585
1.6574298814310822,-8.494416430275143,1.2569352234619193
1.6818414741020185,-8.49416232325777,1.305689474752842
1.6819480749433762,-8.481838132915147,1.3180156060047232
1.670328583235376,-8.420598341728098,1.3674301857555684
1.683120684198312,-8.37206390140973,1.404738743741173
1.6837602892464587,-8.311459377766115,1.4300513347048576
1.6958061843198902,-8.323529461091363,1.442157356470098
1.7073190751865326,-8.396204068060227,1.4288407325283334
1.7668023446641854,-8.554131579357952,1.4147537253833264
1.8376919041671227,-8.796295566915044,1.3992360065751546
1.9202009553780603,-9.086993994790502,1.3830579593070607
1.9776588088699147,-9.43689935771402,1.377555222141042
2.022857565605622,-9.773845262751484,1.4084806050140655
2.0318120362796774,-10.074199757287142,1.4274100208651688
1.9554858338674923,-10.323986955365442,1.4702213160167918
1.9167897284546107,-10.502243028053059,1.5270095635701015
1.817224542626425,-10.644034743747557,1.5351536145758087
1.7186187643704596,-10.701462929674003,1.5569444537532415
1.6201195869558518,-10.747329246309947,1.5547433588868342
1.5344125105041804,-10.745804604205706,1.5294307679231496
1.4365529381377193,-10.732082825267527,1.5040081222161445
1.3392263699780476,-10.682659010388353,1.4551438161819015
1.3027688822336798,-10.658518843737856,1.4188257508861801
1.2785704912454592,-10.634505730596045,1.3826177403337792
1.2789968946108903,-10.598549587637674,1.3832780687937014
1.279743100500395,-10.525874980668808,1.4087007145007062
1.2799563021831106,-10.501480707000939,1.4333529770044686
1.2928550039874043,-10.440240915813888,1.5073097645157556
1.3546834919749287,-10.379636392170271,1.6060288692741256
1.3915673830847277,-10.354606850958968,1.7038675360859323
1.4528628668654628,-10.342663821142406,1.7774941593672584
1.5138385481221248,-10.354606850958968,1.8507906184186231
1.5497630316597035,-10.426010922840963,1.9347623875720636
1.5982664144775027,-10.461840012290649,2.0073985181635066
1.6707549866008071,-10.5462035420587,2.0794843750383474
1.6576430831137976,-10.616845292888577,2.1385837722013847
1.669262574821798,-10.676052227936637,2.1981233883377036
1.6806688648470827,-10.748091567362067,2.2212348844349807
1.6919685540310094,-10.831565722569312,2.2682282598327776
1.7031616423735785,-10.92774522864524,2.2787935151915333
1.7387663233870838,-11.025195269808036,2.2533708694845282
1.7863102986326629,-11.159236721472638,2.215291928295681
1.7971835844511586,-11.292642905593805,2.1646667463683116
1.8575196606596736,-11.379293398518222,2.103366254338867
